Time,ax,ay,az,lax,lay,laz,gx,gy,gz
533360.0,10.375,-0.777344,3.292969,0.78125,-0.988281,0.609375,-0.033203,0.041016,0.050781
533384.0,10.878906,-0.703125,4.289062,1.519531,-0.9375,1.765625,0.130859,0.15625,0.085938
533400.0,11.496094,-0.394531,4.710938,1.792969,-0.8125,1.847656,0.683594,0.611328,0.355469
533423.0,12.523438,-0.664062,6.472656,3.226562,-0.8125,3.714844,0.816406,1.070312,0.888672
533440.0,14.058594,-1.046875,6.738281,4.171875,-0.957031,3.796875,0.583984,1.513672,1.693359
533462.0,13.410156,-1.238281,7.621094,4.296875,-0.847656,4.269531,0.373047,2.318359,2.240234
533494.0,11.5625,-0.855469,4.402344,2.800781,0.152344,0.316406,0.275391,2.759766,2.371094
533510.0,11.140625,0.332031,2.179688,2.933594,0.921875,-1.152344,-0.142578,2.865234,2.015625
533542.0,5.707031,2.25,-0.652344,-2.269531,4.1875,-5.902344,-1.357422,2.765625,1.789062
533560.0,3.976562,2.9375,-0.425781,-5.203125,5.386719,-6.367188,-2.837891,1.751953,2.119141
533591.0,-3.066406,1.519531,-9.847656,-8.980469,6.332031,-12.144531,-1.005859,-0.253906,2.775391
533614.0,-8.085938,-3.882812,-10.230469,-15.226562,-0.054688,-15.628906,0.941406,-0.318359,3.144531
533632.0,-9.539062,-3.421875,-6.972656,-16.5625,0.578125,-12.386719,0.216797,-0.320312,2.197266
533654.0,-4.289062,3.4375,0.726562,-11.167969,7.820312,-4.515625,-0.623047,-1.742188,1.224609
533670.0,0.457031,3.667969,-0.15625,-9.144531,8.410156,-4.726562,-1.833984,-2.978516,0.949219
533694.0,10.609375,3.28125,-1.765625,3.398438,8.265625,-5.765625,-3.449219,-4.046875,0.712891
533712.0,11.101562,0.753906,-1.191406,3.769531,5.902344,-4.691406,-4.064453,-3.429688,-0.990234
533730.0,12.523438,-12.769531,9.765625,4.945312,-5.941406,3.320312,-2.595703,-1.953125,-2.466797
533751.0,14.675781,-12.078125,14.554688,4.472656,-8.390625,11.015625,0.25,-0.953125,-2.722656
533780.0,27.421875,-9.242188,10.226562,15.382812,-3.378906,10.816406,-0.783203,1.273438,-1.097656
533804.0,27.582031,-22.5,12.0625,19.257812,-18.359375,9.90625,-0.517578,1.994141,-0.535156
533821.0,28.765625,-28.207031,13.289062,19.328125,-22.179688,10.792969,1.707031,2.753906,0.113281
533842.0,35.394531,-23.761719,14.246094,27.378906,-19.785156,10.839844,2.849609,3.642578,0.318359
533884.0,25.246094,-13.191406,15.015625,17.75,-9.832031,9.9375,0.058594,3.193359,-1.328125
533901.0,23.328125,-13.878906,11.335938,17.070312,-9.871094,7.917969,-1.902344,2.728516,-2.082031
533931.0,10.839844,-11.539062,3.023438,7.28125,-9.605469,-0.375,-0.363281,2.044922,-1.351562
533954.0,2.71875,-6.644531,-1.917969,-4.328125,-3.765625,-8.144531,2.572266,1.476562,-0.521484
533970.0,-1.878906,-2.273438,-4.25,-6.257812,-2.035156,-9.191406,4.496094,0.849609,-0.767578
533984.0,-3.71875,-0.203125,-7.285156,-10.671875,1.78125,-14.046875,5.203125,0.195312,-1.007812
534011.0,-12.871094,10.484375,-14.519531,-14.601562,7.265625,-20.816406,5.457031,0.939453,0.632812
534035.0,-16.433594,15.464844,-6.820312,-23.269531,15.878906,-14.039062,1.103516,-0.578125,1.474609
534051.0,-7.472656,12.285156,-5.136719,-18.945312,15.261719,-12.859375,-3.730469,-2.470703,0.679688
534066.0,-3.296875,9.722656,-5.671875,-7.144531,8.550781,-12.332031,-5.271484,-2.765625,0.224609
534081.0,5.359375,4.738281,-3.679688,-4.535156,7.371094,-10.898438,-7.148438,-2.6875,-0.292969
534098.0,10.71875,1.902344,-2.261719,-2.21875,6.636719,-9.835938,-7.748047,-2.474609,-0.171875
534122.0,8.804688,-8.132812,2.527344,1.644531,-1.414062,-4.152344,-6.847656,-1.462891,0.267578
534139.0,7.660156,-16.171875,2.792969,0.761719,-4.546875,-2.058594,-5.460938,-0.882812,-0.101562
534161.0,3.023438,-19.390625,3.941406,-5.046875,-15.953125,0.207031,0.382812,0.289062,0.75
534185.0,6.472656,-11.617188,3.253906,-1.480469,-7.34375,-0.878906,3.199219,0.892578,2.035156
534202.0,6.550781,-6.179688,2.527344,-1.140625,-4.441406,-1.375,3.746094,1.427734,2.607422
534218.0,5.441406,-2.386719,0.917969,-1.089844,-1.84375,-2.074219,3.726562,1.703125,2.724609
534242.0,4.015625,0.257812,-1.496094,-2.726562,4.074219,-6.105469,2.943359,1.730469,2.472656
534271.0,3.371094,2.058594,-4.5625,-2.722656,5.894531,-9.996094,1.650391,1.3125,2.433594
534296.0,0.34375,2.898438,-7.46875,-5.484375,7.484375,-13.996094,1.494141,0.638672,2.914062
534311.0,-3.753906,2.59375,-9.039062,-7.328125,7.203125,-15.132812,2.226562,0.087891,3.005859
534324.0,-5.824219,3.28125,-9.277344,-11.175781,7.960938,-16.078125,2.279297,-0.476562,2.816406
534351.0,-12.488281,8.109375,-7.011719,-17.273438,11.664062,-14.59375,1.224609,-1.914062,1.605469
534373.0,-6.207031,9.410156,-5.402344,-11.667969,14.113281,-11.949219,0.511719,-2.462891,1.148438
534431.0,5.78125,7.574219,3.675781,-3.707031,13.265625,-5.082031,-2.513672,-4.117188,-1.734375
534452.0,30.605469,-10.46875,13.214844,12.675781,6.0625,8.695312,-2.132812,-5.097656,-3.648438
534473.0,35.355469,-24.757812,9.574219,27.566406,-20.195312,6.621094,2.320312,-1.365234,-4.705078
534492.0,51.519531,-3.613281,20.109375,33.742188,-10.519531,16.320312,5.224609,0.828125,-4.158203
534525.0,33.324219,4.816406,26.429688,24.792969,6.910156,22.929688,1.017578,0.884766,-2.880859
534542.0,34.320312,-9.628906,20.875,22.894531,-0.328125,20.144531,-4.490234,2.5,-5.027344
534565.0,42.441406,-13.074219,17.808594,34.066406,-12.292969,13.425781,0.306641,4.873047,-6.642578
534582.0,42.410156,-10.125,19.34375,33.664062,-6.289062,15.359375,4.8125,4.875,-5.84375
534597.0,41.371094,-1.964844,20.953125,33.117188,0.308594,15.613281,5.146484,4.457031,-4.972656
534614.0,37.769531,3.472656,22.140625,30.402344,1.597656,16.320312,3.076172,3.974609,-3.728516
534642.0,20.613281,-2.617188,15.511719,17.671875,-1.671875,11.816406,-1.613281,3.839844,-4.082031
534662.0,15.628906,-0.738281,10.992188,14.546875,-5.898438,8.699219,-4.371094,3.337891,-3.230469
534682.0,9.042969,-5.070312,-7.128906,4.484375,-6.027344,-13.039062,0.535156,2.914062,-1.138672
534747.0,-16.167969,-2.847656,-22.027344,-28.070312,-5.171875,-30.945312,3.326172,2.226562,1.783203
534762.0,-21.605469,2.324219,-16.894531,-29.671875,-3.121094,-28.941406,3.052734,0.136719,2.859375
534780.0,-11.757812,5.503906,-10.078125,-25.785156,-1.847656,-24.894531,0.658203,-1.603516,2.912109
534796.0,-4.558594,7.804688,-8.390625,-9.472656,4.007812,-16.15625,-1.333984,-2.648438,2.240234
534812.0,-3.105469,8.71875,-6.820312,-8.582031,5.40625,-15.109375,-6.328125,-3.609375,-0.767578
534843.0,0.917969,8.070312,-6.515625,-7.023438,6.3125,-14.308594,-7.78125,-4.939453,-1.429688
534866.0,15.628906,6.15625,4.480469,8.707031,5.445312,-2.535156,-7.257812,-3.537109,-1.564453
534883.0,29.113281,-17.402344,6.433594,23.703125,2.550781,2.976562,-8.992188,-2.316406,-0.882812
534899.0,6.203125,-44.90625,10.339844,21.746094,-17.199219,-0.136719,-7.085938,-1.269531,-0.552734
534923.0,9.996094,-22.917969,8.003906,0.019531,-36.605469,1.242188,7.123047,0.267578,4.990234
534953.0,12.40625,-0.242188,0.726562,5.289062,-2.648438,-4.671875,5.6875,1.914062,2.71875
534966.0,9.882812,2.707031,1.53125,2.8125,3.175781,-5.328125,4.318359,2.142578,2.394531
534993.0,4.480469,8.683594,1.375,-1.390625,8.785156,-4.171875,-0.574219,1.197266,2.976562
535016.0,4.328125,7.613281,-3.796875,-2.179688,8.9375,-11.0625,-3.0,0.125,3.376953
535034.0,4.671875,7.148438,-6.746094,-1.796875,8.957031,-13.925781,-3.695312,-1.419922,3.716797
535063.0,-3.832031,3.894531,-10.503906,-6.640625,7.007812,-16.59375,-1.740234,-2.496094,5.191406
535081.0,-10.382812,4.699219,-11.570312,-10.277344,7.660156,-16.835938,-0.650391,-3.115234,4.890625
535097.0,-19.0,7.226562,-10.613281,-25.496094,11.789062,-16.261719,0.414062,-3.785156,3.890625
535113.0,-21.875,10.597656,-10.230469,-30.078125,13.605469,-16.335938,1.376953,-1.042969,-1.101562
535165.0,17.117188,15.503906,5.742188,9.441406,18.894531,1.171875,2.152344,-4.314453,-1.300781
535205.0,45.085938,-22.726562,19.574219,36.570312,-19.382812,17.152344,-1.626953,-0.964844,-6.498047
535246.0,45.972656,-26.863281,13.980469,37.101562,-24.558594,11.722656,-8.224609,0.158203,-1.371094
535276.0,40.640625,-30.582031,13.367188,31.828125,-28.339844,10.726562,-1.316406,3.119141,-0.984375
535296.0,43.097656,-24.875,15.550781,34.367188,-22.914062,12.402344,8.648438,4.808594,-2.607422
535323.0,32.980469,8.414062,20.148438,27.273438,5.050781,16.289062,5.871094,4.326172,-3.205078
535341.0,26.890625,7.765625,17.390625,24.816406,8.085938,15.109375,3.310547,4.183594,-3.332031
535357.0,23.214844,4.046875,14.515625,13.691406,-2.332031,5.273438,-1.914062,3.722656,-4.384766
535375.0,20.152344,-4.570312,8.65625,12.984375,-6.195312,2.273438,-6.960938,3.558594,-3.007812
535394.0,7.738281,-1.199219,-5.824219,-1.488281,-2.949219,-18.105469,1.234375,3.287109,-1.691406
535414.0,2.105469,-10.929688,-8.773438,0.214844,-7.160156,-7.035156,3.441406,2.818359,2.042969
535427.0,-1.34375,-9.472656,-13.328125,-10.089844,-7.113281,-24.621094,4.212891,1.902344,2.310547
535443.0,-10.269531,-3.152344,-18.355469,-13.09375,-5.859375,-27.152344,4.296875,1.580078,0.941406
535466.0,-23.949219,-1.46875,-15.671875,-29.453125,-4.507812,-23.414062,4.863281,1.740234,-0.699219
535508.0,-3.527344,9.105469,-6.820312,-9.214844,5.667969,-14.28125,-2.167969,-2.693359,-0.496094
535524.0,-0.613281,10.59375,-6.898438,-7.800781,6.726562,-13.898438,-5.480469,-3.736328,-1.935547
535547.0,3.484375,9.910156,-8.160156,-3.054688,7.488281,-15.300781,-5.898438,-3.888672,-1.90625
535564.0,5.246094,7.1875,-1.957031,-2.507812,6.742188,-12.917969,-4.984375,-2.480469,-1.050781
535581.0,9.464844,2.898438,9.382812,-1.675781,5.308594,-8.878906,-5.630859,-1.347656,-0.392578
535604.0,18.730469,-24.300781,10.070312,4.242188,-13.046875,6.644531,-6.527344,-2.416016,0.462891
535634.0,10.953125,-19.167969,8.15625,4.328125,-28.46875,1.886719,5.380859,0.191406,2.529297
535657.0,6.550781,-2.082031,4.019531,-0.792969,-2.160156,-2.699219,6.128906,0.873047,3.9375
535667.0,6.589844,0.640625,3.023438,-0.65625,0.539062,-3.796875,4.439453,1.632812,4.277344
535698.0,4.785156,5.394531,2.21875,-2.089844,5.617188,-4.960938,0.417969,1.277344,2.957031
535714.0,8.234375,7.6875,-1.804688,-0.507812,6.898438,-6.714844,-1.535156,0.451172,3.289062
535727.0,9.34375,8.492188,-4.214844,2.679688,9.578125,-11.511719,-2.074219,0.634766,3.794922
535768.0,0.417969,10.210938,-7.894531,-10.535156,13.09375,-16.734375,-3.6875,-1.697266,6.048828
535808.0,-21.605469,7.074219,-7.511719,-27.753906,11.464844,-13.816406,-0.292969,-3.099609,2.724609
535824.0,-16.707031,7.609375,-6.746094,-26.777344,11.828125,-13.105469,-1.960938,-2.898438,-0.634766
535847.0,-3.949219,7.226562,1.261719,-10.746094,11.84375,-3.972656,-0.03125,-3.054688,-1.205078
535888.0,41.828125,-17.171875,0.34375,34.398438,-12.453125,-3.570312,-4.681641,-8.476562,1.585938
535905.0,25.28125,-16.753906,19.917969,46.402344,-22.636719,-1.222656,1.818359,-1.074219,-3.699219
535921.0,31.261719,-13.34375,27.730469,17.4375,-12.191406,16.785156,0.230469,-0.550781,-4.349609
535945.0,42.171875,-16.367188,20.53125,27.195312,-5.296875,22.648438,-3.960938,-0.429688,-2.798828
535965.0,40.566406,-25.371094,18.078125,34.042969,-22.109375,13.691406,0.552734,3.017578,-2.865234
535985.0,39.257812,-22.191406,20.148438,30.601562,-21.675781,16.054688,4.197266,3.585938,-3.449219
536005.0,40.066406,-5.453125,20.605469,31.160156,-9.351562,16.390625,6.585938,3.921875,-4.652344
536026.0,38.992188,3.089844,20.683594,31.675781,-4.132812,16.082031,4.970703,3.779297,-4.417969
536055.0,24.863281,-2.308594,19.265625,21.203125,0.207031,13.460938,-0.892578,3.480469,-4.673828
536078.0,13.332031,-1.964844,13.289062,6.40625,-3.761719,6.539062,-3.410156,3.375,-4.457031
536115.0,6.089844,-13.691406,-11.265625,3.152344,-10.941406,-15.246094,2.019531,2.935547,0.183594
536135.0,-4.867188,-12.269531,-17.167969,-4.105469,-15.972656,-21.207031,3.441406,1.283203,0.724609
536150.0,-6.78125,-13.574219,-18.011719,-14.265625,-19.332031,-23.878906,4.814453,2.199219,-0.050781
536165.0,-22.179688,-11.273438,-16.359375,-20.582031,-18.320312,-23.550781,5.142578,2.037109,-0.273438
536205.0,-7.777344,10.101562,-7.625,-17.339844,3.132812,-17.207031,-0.4375,-3.013672,1.888672
536228.0,0.226562,9.761719,-5.097656,-5.8125,5.726562,-12.027344,-3.558594,-3.453125,0.103516
536268.0,5.246094,6.652344,-5.402344,-1.753906,3.839844,-11.980469,-5.474609,-3.509766,-0.925781
536298.0,5.742188,1.828125,3.253906,-1.667969,-0.132812,-3.144531,-4.796875,-2.056641,-0.390625
536308.0,6.203125,-1.390625,6.507812,-1.320312,-2.96875,0.132812,-5.59375,-1.523438,0.820312
536340.0,17.503906,-27.441406,9.652344,9.558594,-27.582031,3.652344,-3.849609,-2.185547,1.369141
536356.0,14.9375,-26.332031,4.132812,9.3125,-29.515625,0.671875,4.285156,-0.980469,1.453125
536379.0,9.992188,-1.660156,5.898438,1.871094,-1.894531,0.171875,6.220703,0.5,3.441406
536397.0,9.042969,2.632812,3.828125,0.953125,2.398438,-1.953125,3.339844,1.28125,4.332031
536415.0,2.257812,6.039062,2.832031,-4.183594,6.25,-2.4375,1.496094,1.4375,3.882812
536435.0,1.453125,5.15625,2.027344,-6.097656,5.921875,-3.777344,-1.042969,1.384766,3.169922
536465.0,4.941406,7.808594,-4.292969,-3.859375,8.535156,-8.523438,-2.787109,-0.09375,3.382812
536489.0,3.445312,10.484375,-12.757812,-3.8125,13.242188,-18.867188,-2.474609,-1.080078,3.644531
536506.0,-0.921875,6.078125,-12.378906,-6.539062,12.007812,-19.699219,-3.271484,-0.755859,4.652344
536530.0,-11.492188,-0.703125,-7.242188,-18.296875,3.898438,-12.617188,-2.894531,-1.103516,5.039062
536546.0,-17.851562,1.023438,-6.4375,-20.878906,4.75,-11.902344,2.101562,-1.546875,2.853516
536563.0,-17.203125,3.050781,-1.574219,-24.460938,6.03125,-11.617188,2.275391,-0.623047,1.480469
536578.0,-9.039062,5.042969,4.976562,-15.589844,9.871094,-0.304688,2.478516,-0.767578,0.457031
536610.0,27.464844,7.035156,10.761719,20.589844,11.941406,6.160156,-4.712891,-5.162109,0.011719
536626.0,46.65625,-9.242188,6.699219,59.304688,-2.609375,-8.695312,-0.75,-0.947266,-3.546875
536656.0,28.386719,-19.816406,27.960938,23.015625,-21.871094,22.933594,-0.769531,0.544922,-2.730469
536681.0,46.277344,-31.308594,22.90625,38.179688,-27.378906,19.710938,-2.75,0.835938,-1.701172
536696.0,41.140625,-30.121094,17.734375,34.648438,-28.5,16.253906,0.056641,3.056641,-0.865234
536709.0,39.378906,-27.632812,18.039062,31.371094,-23.890625,14.335938,1.019531,3.320312,-1.25
536736.0,33.675781,-14.644531,18.460938,28.371094,-14.996094,13.082031,4.699219,3.642578,-1.162109
536760.0,24.558594,-5.144531,17.617188,17.070312,-2.777344,11.921875,4.191406,3.697266,-1.761719
536778.0,21.90625,-3.382812,16.316406,14.582031,-1.40625,10.230469,2.179688,3.449219,-2.769531
536796.0,12.179688,-3.84375,6.894531,8.214844,-2.039062,4.78125,-0.386719,2.556641,-3.841797
536818.0,9.039062,-0.242188,2.296875,2.234375,0.617188,-4.757812,0.097656,1.582031,-3.710938
536837.0,4.480469,-3.421875,0.035156,-0.550781,0.066406,-5.324219,2.021484,2.257812,-1.03125
536856.0,-3.488281,-6.601562,-8.050781,-5.527344,-6.304688,-11.503906,4.923828,1.365234,-0.480469
536870.0,-8.085938,-5.335938,-11.796875,-18.117188,-4.65625,-22.871094,4.310547,1.033203,-1.175781
536910.0,-12.796875,-3.765625,-12.988281,-18.3125,-6.765625,-20.792969,5.148438,0.591797,-1.386719
536926.0,-6.09375,2.25,-7.207031,-14.765625,-4.085938,-17.980469,2.650391,-1.566406,-0.109375
536949.0,0.609375,8.957031,-6.246094,-5.242188,5.078125,-13.394531,-0.570312,-2.814453,-1.089844
536980.0,2.71875,9.144531,-5.980469,-3.601562,5.707031,-12.941406,-4.654297,-3.275391,-1.820312
536997.0,1.339844,7.804688,-4.332031,-4.21875,5.414062,-12.058594,-6.166016,-2.722656,-0.990234
537009.0,1.070312,7.003906,-2.914062,-5.71875,4.578125,-9.820312,-6.101562,-2.902344,-0.742188
537027.0,5.054688,3.015625,1.070312,-3.40625,2.882812,-6.5,-6.835938,-2.558594,-0.955078
537047.0,8.621094,-3.996094,4.863281,-2.085938,1.359375,-5.695312,-6.173828,-1.779297,-0.871094
537067.0,13.519531,-17.4375,2.984375,3.332031,-13.246094,-1.835938,-4.728516,-2.736328,-0.488281
537097.0,8.195312,-10.816406,2.527344,0.664062,-15.972656,-3.855469,3.347656,-1.625,0.28125
537117.0,7.277344,-2.730469,3.523438,-0.503906,-6.1875,-2.234375,4.712891,-1.044922,0.966797
537130.0,6.585938,-0.011719,3.0625,-1.824219,0.402344,-2.828125,4.105469,-1.166016,1.269531
537147.0,5.097656,1.289062,2.910156,-2.160156,0.675781,-2.609375,2.216797,-1.082031,2.134766
537170.0,1.492188,-0.894531,3.449219,-6.984375,-1.441406,-1.570312,1.398438,-0.972656,2.535156
537209.0,-0.269531,1.445312,-1.992188,-8.949219,1.75,-6.589844,-0.087891,-1.660156,2.238281
537249.0,-2.109375,2.398438,-0.808594,-10.929688,3.652344,-4.808594,-0.957031,-1.400391,2.515625
537281.0,-3.867188,0.21875,1.109375,-12.519531,2.140625,-2.875,0.642578,0.285156,2.644531
537308.0,1.683594,0.871094,4.402344,-9.527344,2.496094,-1.050781,2.568359,1.277344,3.037109
537322.0,5.859375,1.289062,6.777344,6.308594,5.542969,6.429688,1.802734,0.945312,3.140625
537337.0,45.851562,-8.824219,-3.410156,28.28125,2.675781,1.589844,-0.064453,-0.962891,1.650391
537362.0,20.71875,-4.300781,18.769531,12.621094,-1.386719,14.558594,0.691406,-1.898438,0.291016
537378.0,23.441406,-3.304688,18.769531,12.335938,-0.222656,17.585938,0.089844,-1.791016,-0.433594
537390.0,29.691406,-5.796875,13.902344,21.367188,-2.929688,10.128906,-2.402344,-2.460938,-1.943359
537402.0,32.132812,-8.667969,12.332031,23.09375,-5.472656,10.304688,-3.626953,-2.455078,-1.951172
537431.0,24.320312,-16.597656,12.714844,15.652344,-13.636719,9.878906,-2.519531,-1.060547,0.109375
537448.0,20.640625,-15.335938,8.15625,13.71875,-13.964844,7.953125,-1.183594,-0.910156,0.615234
537477.0,16.246094,-10.316406,3.367188,8.289062,-9.050781,1.191406,1.591797,0.1875,-0.375
537517.0,10.917969,0.90625,2.910156,3.183594,2.027344,0.339844,2.296875,-0.392578,-0.363281
537538.0,8.699219,2.59375,2.792969,0.945312,4.800781,-0.035156,1.1875,-0.546875,-0.400391
537558.0,4.75,3.089844,3.558594,-2.925781,5.539062,0.59375,0.445312,-0.365234,-0.603516
537579.0,2.640625,2.859375,2.410156,-4.226562,5.621094,0.722656,-0.179688,-0.408203,-0.683594
537598.0,0.6875,2.132812,0.878906,-8.207031,4.753906,-1.359375,-0.908203,-0.345703,-0.695312
537621.0,1.257812,0.90625,0.074219,-7.902344,3.171875,-2.519531,-1.402344,-0.228516,-0.638672
537637.0,2.296875,-0.585938,-0.003906,-7.390625,2.628906,-2.558594,-1.916016,0.28125,-0.835938
537651.0,2.757812,-1.660156,0.1875,-6.460938,0.527344,-2.335938,-1.734375,0.455078,-0.976562
537668.0,3.90625,-3.574219,1.492188,-5.664062,-1.171875,-1.621094,-0.902344,0.455078,-1.048828
537688.0,4.675781,-3.152344,2.179688,-4.960938,-1.429688,-0.710938,0.082031,0.21875,-0.867188
537708.0,5.359375,-1.699219,2.371094,-4.21875,-0.40625,-0.261719,0.740234,0.228516,-0.671875
537729.0,5.628906,-1.199219,2.179688,-3.921875,0.035156,-0.300781,0.861328,0.664062,-0.601562
537742.0,5.785156,-1.046875,2.179688,-3.359375,0.714844,-0.449219,0.75,0.865234,-0.605469
537763.0,6.707031,-1.277344,2.792969,-2.960938,0.445312,-0.351562,0.474609,1.035156,-0.578125
537788.0,10.839844,-2.578125,3.136719,0.410156,-1.082031,-0.1875,0.453125,0.878906,-0.498047
537812.0,13.027344,-2.273438,3.75,3.929688,-1.25,0.242188,0.654297,0.814453,-0.486328
537830.0,12.679688,-1.3125,4.289062,3.625,-0.398438,0.65625,0.871094,0.433594,-0.080078
537851.0,12.101562,-0.894531,4.097656,3.070312,-0.011719,0.402344,0.652344,0.298828,0.082031
537892.0,11.496094,-3.496094,2.910156,2.46875,-2.558594,-0.832031,-0.369141,0.105469,0.033203
537908.0,9.957031,-3.84375,3.101562,1.785156,-2.804688,-0.839844,0.349609,0.087891,0.394531
537932.0,8.425781,-2.769531,3.597656,-0.574219,-1.722656,-0.183594,0.865234,-0.037109,0.800781
537949.0,8.460938,-1.542969,3.789062,-0.566406,-1.140625,-0.144531,0.820312,-0.078125,0.970703
537972.0,8.199219,-0.433594,3.558594,-0.78125,0.832031,-0.222656,0.423828,-0.173828,0.816406
537989.0,8.003906,-1.007812,3.636719,-0.855469,0.703125,-0.242188,0.087891,-0.345703,0.853516
538009.0,7.582031,-2.386719,3.523438,-1.238281,-0.421875,-0.152344,0.220703,-0.257812,0.964844
538029.0,7.394531,-2.730469,3.558594,-1.386719,-0.839844,-0.164062,0.625,-0.033203,1.097656
538043.0,7.539062,-2.617188,3.558594,-1.15625,-0.527344,-0.28125,0.751953,0.033203,1.134766
538058.0,8.578125,-1.734375,2.945312,-0.710938,-0.105469,-0.535156,0.623047,0.064453,1.105469
538082.0,9.652344,-2.15625,3.636719,0.816406,-0.046875,-0.113281,0.453125,0.013672,1.117188
538092.0,9.886719,-2.308594,4.289062,1.078125,-0.097656,0.539062,0.076172,0.078125,1.267578
538122.0,10.070312,-1.964844,3.675781,1.371094,0.527344,-0.128906,0.449219,0.015625,1.050781
538139.0,9.613281,-1.734375,3.136719,1.433594,0.527344,-0.527344,0.355469,0.017578,1.123047
538153.0,8.882812,-1.503906,3.40625,-0.121094,1.007812,0.214844,0.255859,0.056641,1.179688
538169.0,8.621094,-3.0,5.285156,-0.273438,0.496094,0.964844,0.335938,0.126953,1.384766
538191.0,10.152344,-3.804688,4.632812,1.710938,-0.679688,0.6875,0.558594,0.220703,1.394531
538273.0,8.925781,-0.089844,6.664062,1.152344,3.199219,1.585938,1.84375,1.708984,0.958984
538290.0,8.660156,-0.203125,6.894531,1.160156,3.253906,1.375,1.513672,2.048828,0.837891
538312.0,8.195312,-0.96875,6.738281,0.984375,2.210938,0.816406,1.480469,2.275391,0.648438
538330.0,7.582031,-1.351562,6.472656,0.820312,2.011719,0.476562,1.585938,2.40625,0.351562
538344.0,7.273438,-1.46875,6.203125,0.34375,1.394531,-0.511719,1.701172,2.451172,0.191406
538359.0,6.351562,-1.734375,6.125,0.15625,1.214844,-0.722656,1.96875,2.548828,-0.070312
538383.0,5.359375,-1.390625,6.164062,-0.6875,1.015625,-1.257812,2.287109,2.552734,-0.292969
538430.0,4.710938,0.292969,7.085938,-0.304688,1.847656,-1.070312,1.925781,1.927734,-0.992188
538452.0,3.828125,0.21875,6.28125,-1.09375,1.117188,-2.242188,1.560547,1.832031,-1.15625
538469.0,2.984375,0.410156,5.859375,-1.449219,1.066406,-2.644531,0.806641,1.513672,-1.716797
538480.0,2.792969,0.449219,6.007812,-1.671875,0.988281,-2.828125,0.722656,1.363281,-1.775391
538495.0,2.679688,0.484375,6.207031,-1.871094,0.8125,-2.617188,0.652344,1.224609,-1.787109
538532.0,1.796875,0.5625,6.3125,-2.304688,0.335938,-2.652344,0.453125,0.761719,-1.921875
538572.0,3.40625,-0.472656,6.699219,-0.601562,-1.027344,-2.285156,-0.279297,-0.123047,-1.765625
538589.0,3.714844,-0.703125,6.734375,-0.417969,-1.148438,-2.246094,-0.400391,-0.396484,-1.642578
538613.0,3.371094,-0.472656,6.933594,-0.738281,-1.152344,-1.992188,-0.603516,-0.763672,-1.617188
538630.0,3.371094,-0.089844,6.625,-0.992188,-0.9375,-1.953125,-0.816406,-0.976562,-1.621094
538653.0,3.179688,0.675781,6.285156,-1.234375,0.019531,-2.476562,-1.195312,-1.324219,-1.583984
538670.0,3.675781,0.410156,6.28125,-1.109375,-0.054688,-2.414062,-1.755859,-1.644531,-1.515625
538700.0,6.929688,-0.855469,5.167969,0.84375,-0.785156,-2.910156,-2.105469,-2.169922,-1.3125
538723.0,8.386719,-1.8125,4.097656,2.886719,-1.851562,-4.011719,-2.056641,-2.447266,-1.232422
538734.0,7.660156,-1.925781,4.441406,1.941406,-1.871094,-3.496094,-1.8125,-2.748047,-1.0
538753.0,7.007812,-2.042969,6.316406,0.820312,-1.800781,-1.253906,-1.658203,-3.191406,-0.439453
538771.0,9.6875,-3.078125,8.769531,2.117188,-2.320312,0.789062,-1.537109,-3.509766,0.136719
538795.0,10.230469,-2.921875,9.113281,2.089844,-1.5,1.722656,-1.490234,-2.794922,0.310547
538810.0,7.660156,-1.390625,5.898438,0.921875,-0.800781,0.515625,-1.875,-2.220703,0.039062
538832.0,9.34375,-4.226562,6.433594,1.65625,-3.0,0.566406,-2.257812,-2.173828,0.083984
538850.0,11.339844,-8.4375,8.082031,2.890625,-4.925781,1.566406,-2.537109,-2.386719,0.978516
538872.0,8.425781,-9.933594,7.277344,0.324219,-7.878906,2.277344,-2.154297,-2.333984,1.365234
538884.0,8.15625,-9.125,6.242188,-0.015625,-6.863281,1.445312,-1.099609,-2.029297,1.900391
538901.0,10.335938,-8.746094,5.015625,0.589844,-6.109375,0.835938,-0.345703,-1.841797,1.855469
538930.0,11.523438,-10.164062,7.695312,4.089844,-7.410156,0.839844,1.269531,-1.539062,1.955078
538954.0,11.070312,-5.605469,8.234375,2.804688,-2.285156,4.257812,2.228516,-0.783203,2.302734
538970.0,10.71875,-2.15625,7.890625,2.820312,-0.273438,4.042969,2.125,-0.066406,1.984375
538993.0,8.273438,-1.390625,6.738281,0.265625,2.25,2.503906,1.845703,0.423828,1.558594
539011.0,7.128906,-1.503906,6.394531,-1.65625,1.914062,1.636719,1.746094,0.638672,1.345703
539041.0,5.058594,-0.855469,3.484375,-2.542969,2.375,-0.707031,1.410156,0.490234,0.931641
539064.0,7.234375,1.136719,2.335938,-0.300781,4.925781,-2.609375,1.316406,0.388672,0.789062
539074.0,8.347656,1.863281,2.066406,0.839844,5.636719,-2.933594,0.888672,0.164062,0.484375
539104.0,7.65625,1.253906,4.324219,0.191406,5.035156,-0.738281,0.216797,0.017578,0.175781
539144.0,5.589844,-2.886719,6.46875,-1.910156,0.925781,1.472656,0.53125,-0.453125,0.349609
539154.0,5.132812,-2.769531,6.699219,-2.367188,1.003906,1.691406,1.226562,-0.353516,0.341797
539184.0,5.285156,-0.703125,6.050781,-2.222656,2.90625,0.925781,1.699219,-0.158203,0.199219
539201.0,5.285156,0.027344,5.625,-2.148438,3.289062,0.679688,1.308594,0.166016,-0.076172
539215.0,5.167969,0.027344,5.441406,-2.476562,3.292969,-0.089844,0.974609,0.289062,-0.214844
539231.0,5.097656,-0.242188,4.746094,-2.5,3.1875,-0.367188,0.410156,0.431641,-0.384766
539253.0,6.167969,-1.007812,4.441406,-1.273438,2.148438,-1.035156,0.199219,0.443359,-0.46875
539295.0,9.917969,-1.277344,4.363281,2.410156,1.652344,-1.136719,-0.298828,-0.433594,-1.142578
539312.0,11.183594,-1.390625,3.675781,3.117188,1.5,-1.457031,-0.570312,-0.892578,-1.429688
539327.0,11.378906,-1.429688,3.597656,3.519531,1.175781,-1.558594,-0.751953,-1.056641,-1.535156
539352.0,9.953125,-3.039062,4.402344,3.078125,0.644531,-1.265625,-1.025391,-1.201172,-1.804688
539366.0,9.609375,-3.574219,4.554688,1.28125,-1.636719,-0.257812,-0.84375,-1.166016,-1.884766
539381.0,9.574219,-3.917969,4.402344,1.21875,-1.886719,-0.183594,-0.285156,-0.929688,-1.982422
539405.0,10.535156,-2.308594,3.980469,2.0625,-0.582031,-0.496094,-0.025391,-0.666016,-1.939453
539422.0,10.796875,-1.351562,4.019531,2.191406,-0.097656,-0.472656,-0.203125,-0.605469,-1.714844
539434.0,10.722656,-1.121094,4.210938,2.089844,0.152344,-0.09375,-0.447266,-0.667969,-1.544922
539461.0,9.191406,-1.734375,4.9375,0.765625,-0.375,0.691406,-1.210938,-0.720703,-1.228516
539485.0,8.886719,-2.5,4.210938,0.042969,-1.585938,0.265625,-1.353516,-0.585938,-1.185547
539502.0,9.382812,-2.769531,3.332031,0.195312,-1.835938,-0.101562,-1.173828,-0.341797,-1.115234
539516.0,9.609375,-2.886719,3.0625,0.796875,-2.171875,-0.902344,-1.003906,-0.199219,-1.083984
539532.0,9.347656,-2.960938,3.023438,0.714844,-2.273438,-0.886719,-0.628906,0.044922,-0.998047
539556.0,8.316406,-2.464844,3.523438,-0.640625,-1.972656,-0.273438,-0.226562,0.087891,-0.867188
539572.0,8.464844,-1.773438,3.484375,-0.824219,-1.660156,-0.207031,-0.023438,0.060547,-0.757812
539589.0,9.804688,-1.351562,2.527344,-0.488281,-1.421875,-0.328125,-0.017578,0.054688,-0.728516
539605.0,9.84375,-0.96875,2.105469,0.890625,-0.804688,-1.714844,-0.035156,0.023438,-0.720703
539636.0,8.277344,-1.773438,3.40625,-0.6875,-1.75,-0.40625,-0.158203,-0.050781,-0.414062
539652.0,7.890625,-1.851562,3.597656,-0.917969,-1.925781,-0.246094,0.027344,-0.097656,-0.179688
539675.0,8.082031,-1.085938,3.0625,-0.894531,-1.140625,-0.71875,0.214844,-0.078125,-0.091797
539692.0,8.617188,-0.472656,2.832031,-0.664062,-0.808594,-0.828125,0.335938,0.039062,-0.117188
539707.0,8.921875,-0.28125,2.753906,0.183594,-0.199219,-1.019531,0.34375,0.064453,-0.140625
539721.0,9.148438,0.21875,3.0625,0.214844,0.007812,-0.871094,0.177734,-0.046875,-0.199219
539745.0,9.078125,-0.242188,3.367188,0.09375,-0.445312,-0.375,0.078125,-0.126953,-0.224609
539756.0,9.117188,-0.394531,3.558594,0.132812,-0.621094,-0.167969,0.117188,-0.324219,-0.238281
539792.0,10.070312,0.140625,2.910156,0.8125,-0.601562,-0.433594,0.697266,-0.433594,-0.240234
539813.0,9.648438,1.136719,2.832031,1.035156,-0.226562,-0.660156,0.597656,-0.539062,-0.224609
539832.0,8.464844,1.980469,3.136719,-0.40625,1.304688,-0.398438,0.117188,-0.703125,-0.150391
539857.0,8.425781,1.863281,3.253906,-0.515625,1.082031,-0.035156,-0.408203,-0.902344,-0.050781
539872.0,9.808594,0.90625,2.71875,-0.011719,0.714844,-0.140625,-0.759766,-0.955078,0.001953
539897.0,9.53125,0.027344,2.71875,0.253906,-0.402344,-0.164062,-0.783203,-0.783203,0.035156
539912.0,9.265625,-1.046875,3.175781,0.078125,-0.917969,0.132812,-0.554688,-0.677734,0.044922
539930.0,9.304688,-1.46875,3.445312,-0.050781,-1.429688,0.425781,-0.414062,-0.693359,0.119141
539945.0,9.730469,-1.46875,3.597656,0.351562,-1.78125,1.042969,-0.267578,-0.714844,0.201172
539982.0,10.496094,-1.660156,3.523438,1.027344,-1.65625,1.160156,0.306641,-0.242188,0.728516
540003.0,10.417969,-2.347656,3.675781,1.019531,-2.027344,1.171875,0.455078,-0.039062,0.982422
540022.0,10.722656,-2.617188,3.714844,1.085938,-2.59375,1.476562,0.914062,0.173828,1.150391
540046.0,10.992188,-1.582031,2.910156,1.570312,-1.207031,0.488281,1.144531,0.283203,1.191406
540063.0,10.6875,-1.085938,2.640625,1.433594,-0.890625,0.285156,1.419922,0.511719,1.220703
540086.0,9.992188,-0.28125,2.488281,0.652344,0.414062,-0.152344,1.375,0.568359,1.208984
540105.0,9.730469,-0.050781,2.410156,0.398438,0.730469,-0.292969,1.261719,0.544922,1.175781
540126.0,9.382812,0.066406,1.757812,0.132812,1.074219,-1.132812,1.009766,0.533203,1.095703
540144.0,9.121094,-0.164062,1.757812,0.082031,1.035156,-1.269531,0.751953,0.515625,0.951172
540158.0,9.042969,-0.433594,1.757812,-0.132812,0.515625,-1.265625,0.699219,0.447266,0.875
540183.0,8.730469,-0.777344,1.875,-0.171875,0.550781,-1.304688,0.652344,0.185547,0.722656
540213.0,8.238281,-1.351562,2.257812,-0.8125,0.339844,-0.992188,0.433594,-0.005859,0.523438
540235.0,8.542969,-1.277344,2.488281,-0.53125,0.277344,-0.738281,0.416016,-0.003906,0.439453
540277.0,9.191406,-1.503906,2.753906,0.136719,0.097656,-0.503906,0.119141,0.037109,0.121094
540293.0,9.269531,-2.234375,2.910156,0.222656,-0.242188,-0.433594,-0.03125,0.027344,0.015625
540317.0,9.039062,-2.65625,3.332031,-0.007812,-1.039062,0.058594,0.169922,0.085938,0.007812
540334.0,8.925781,-2.386719,3.40625,-0.007812,-0.960938,0.078125,0.375,0.128906,0.085938
540350.0,8.730469,-1.851562,3.332031,-0.113281,-0.777344,0.101562,0.400391,0.138672,0.115234
540373.0,8.882812,-1.429688,3.253906,-0.167969,0.140625,-0.058594,0.359375,0.128906,0.138672
540388.0,8.882812,-1.429688,3.253906,-0.152344,0.105469,-0.050781,0.355469,0.117188,0.146484
540413.0,8.699219,-1.890625,3.980469,-0.261719,-0.265625,0.292969,0.601562,0.019531,0.375
540433.0,8.578125,-1.277344,4.632812,-0.320312,0.152344,1.042969,0.736328,-0.015625,0.441406
540454.0,8.5,-0.625,4.710938,-0.390625,0.386719,1.179688,0.580078,-0.058594,0.367188
540473.0,8.695312,-0.511719,4.402344,-0.335938,1.308594,1.011719,0.314453,-0.085938,0.277344
540494.0,8.726562,-1.007812,4.363281,-0.257812,1.207031,0.933594,0.214844,-0.107422,0.216797
540513.0,8.65625,-1.277344,4.402344,-0.25,0.480469,0.902344,0.308594,-0.130859,0.191406
540535.0,8.238281,-0.738281,4.480469,-0.289062,0.488281,0.949219,0.355469,-0.173828,0.142578
540550.0,7.738281,-0.472656,4.480469,-0.71875,1.042969,1.042969,0.306641,-0.183594,0.105469
540576.0,7.617188,-0.894531,4.171875,-1.355469,0.878906,0.78125,0.099609,-0.173828,0.029297
540617.0,8.078125,-0.96875,3.558594,-0.894531,0.757812,0.183594,0.185547,-0.015625,-0.142578
540634.0,8.234375,-0.625,3.90625,-0.828125,0.886719,0.253906,0.177734,-0.113281,-0.167969
540657.0,8.660156,-0.355469,4.132812,-0.34375,1.285156,0.78125,0.007812,-0.230469,-0.185547
540674.0,9.003906,-0.546875,4.019531,-0.128906,1.230469,0.730469,-0.160156,-0.292969,-0.244141
540697.0,9.148438,-0.929688,4.019531,0.105469,0.640625,0.769531,-0.1875,-0.28125,-0.304688
540727.0,9.0,-0.585938,4.363281,-0.085938,0.90625,1.199219,-0.115234,-0.273438,-0.289062
540744.0,8.925781,-0.546875,4.324219,-0.132812,0.929688,1.214844,-0.154297,-0.240234,-0.285156
540768.0,8.964844,-0.816406,4.25,-0.171875,0.597656,1.164062,-0.21875,-0.175781,-0.292969
540784.0,8.804688,-1.121094,4.324219,-0.214844,0.421875,1.226562,-0.236328,-0.089844,-0.328125
540808.0,8.5,-1.007812,4.519531,-0.652344,0.3125,1.472656,-0.160156,-0.019531,-0.292969
540824.0,8.382812,-0.738281,4.402344,-0.730469,0.394531,1.441406,-0.189453,0.033203,-0.238281
540847.0,8.425781,-0.855469,4.097656,-0.730469,0.386719,1.042969,-0.222656,0.066406,-0.226562
540879.0,8.238281,-0.816406,4.058594,-0.914062,0.378906,0.964844,-0.273438,0.169922,-0.226562
540916.0,8.726562,-0.433594,4.019531,-0.386719,0.722656,0.855469,-0.310547,0.208984,-0.173828
540936.0,9.53125,-0.511719,3.828125,0.425781,0.636719,0.632812,-0.492188,0.222656,-0.255859
540959.0,9.953125,-0.96875,3.714844,0.855469,0.148438,0.472656,-0.533203,0.232422,-0.310547
540998.0,9.5,-0.585938,3.867188,0.414062,0.445312,0.554688,-0.460938,0.265625,-0.398438
541014.0,9.535156,-0.28125,3.789062,0.382812,0.613281,0.492188,-0.546875,0.324219,-0.402344
541038.0,9.574219,-0.125,3.714844,0.527344,0.820312,0.292969,-0.734375,0.384766,-0.439453
541055.0,9.503906,-0.511719,3.675781,0.460938,0.648438,0.261719,-0.910156,0.421875,-0.533203
541070.0,9.5,-0.738281,3.558594,0.558594,-0.070312,-0.03125,-0.925781,0.427734,-0.568359
541084.0,9.613281,-0.96875,3.40625,0.644531,-0.132812,-0.109375,-0.802734,0.509766,-0.578125
541107.0,9.652344,-0.394531,3.367188,0.683594,0.410156,-0.3125,-0.742188,0.539062,-0.560547
541124.0,9.691406,-0.203125,3.445312,0.746094,0.5,-0.28125,-0.707031,0.46875,-0.511719
541148.0,9.765625,-0.738281,3.101562,0.859375,-0.011719,-0.734375,-0.859375,0.337891,-0.515625
541168.0,9.730469,-0.96875,3.0625,0.828125,-0.257812,-0.796875,-0.853516,0.248047,-0.476562
541195.0,8.882812,-1.429688,3.0625,0.078125,-0.789062,-0.8125,-0.470703,0.228516,-0.269531
541220.0,8.886719,-1.007812,2.753906,0.027344,-0.34375,-1.222656,-0.210938,0.269531,-0.195312
541259.0,8.960938,-0.511719,2.5625,0.140625,0.121094,-1.5,-0.238281,0.185547,-0.164062
541275.0,8.886719,-0.929688,2.679688,0.074219,-0.078125,-1.429688,-0.294922,0.113281,-0.121094
541299.0,9.042969,-0.96875,2.601562,0.242188,-0.351562,-1.5,-0.285156,0.101562,-0.164062
541316.0,9.1875,-0.738281,2.449219,0.320312,-0.246094,-1.574219,-0.244141,0.103516,-0.253906
541337.0,9.347656,-0.472656,2.449219,0.546875,0.097656,-1.675781,-0.234375,0.097656,-0.287109
541378.0,9.121094,-0.703125,2.753906,0.320312,-0.1875,-1.371094,-0.330078,-0.033203,-0.246094
541396.0,9.082031,-0.894531,2.71875,0.320312,-0.308594,-1.363281,-0.251953,-0.076172,-0.228516
541410.0,9.121094,-0.894531,2.71875,0.3125,-0.445312,-1.382812,-0.164062,-0.080078,-0.222656
541425.0,9.1875,-0.816406,2.71875,0.339844,-0.417969,-1.375,0.027344,-0.087891,-0.173828
541459.0,9.117188,-0.355469,2.910156,0.28125,0.058594,-1.136719,0.144531,-0.154297,-0.050781
541476.0,8.960938,-0.28125,2.984375,0.195312,0.089844,-1.121094,0.126953,-0.216797,0.023438
541495.0,9.003906,-0.394531,2.910156,0.066406,0.050781,-1.046875,0.099609,-0.257812,0.070312
541521.0,9.425781,-0.472656,2.601562,0.53125,-0.074219,-1.3125,0.095703,-0.269531,0.085938
541546.0,9.6875,-0.546875,2.488281,0.820312,-0.097656,-1.410156,0.175781,-0.271484,0.117188
541565.0,9.308594,-0.472656,2.871094,0.484375,-0.089844,-1.019531,0.304688,-0.298828,0.177734
541586.0,9.1875,-0.28125,2.984375,0.316406,0.035156,-0.765625,0.332031,-0.349609,0.21875
541606.0,9.042969,-0.050781,2.792969,0.09375,0.3125,-0.855469,0.255859,-0.373047,0.207031
541626.0,8.925781,-0.089844,2.832031,-0.046875,0.410156,-0.824219,0.210938,-0.380859,0.228516
541645.0,9.0,-0.242188,2.640625,-0.039062,0.328125,-0.820312,0.212891,-0.332031,0.244141
541666.0,8.964844,-0.164062,2.71875,-0.046875,0.257812,-0.867188,0.234375,-0.283203,0.222656
541685.0,9.191406,-0.125,2.910156,0.039062,0.421875,-0.589844,0.21875,-0.230469,0.208984
541696.0,9.308594,-0.125,2.984375,0.105469,0.421875,-0.488281,0.210938,-0.222656,0.195312
541711.0,9.425781,-0.125,3.023438,0.480469,0.453125,-0.25,0.1875,-0.214844,0.175781
541736.0,10.453125,-0.050781,3.253906,0.734375,0.414062,-0.160156,0.050781,-0.267578,0.068359
541750.0,10.691406,0.027344,3.253906,1.714844,0.667969,-0.042969,-0.011719,-0.291016,0.019531
541776.0,10.265625,-0.011719,3.523438,1.621094,0.703125,0.066406,-0.183594,-0.333984,-0.013672
541790.0,9.957031,-0.089844,3.636719,0.433594,0.484375,0.582031,-0.232422,-0.335938,0.011719
541806.0,9.082031,-0.355469,3.867188,0.121094,0.382812,0.734375,-0.248047,-0.216797,0.099609
541830.0,8.726562,-0.664062,3.828125,-0.472656,0.007812,0.789062,-0.128906,-0.011719,0.166016
541846.0,8.808594,-0.703125,3.675781,-0.472656,-0.015625,0.703125,-0.025391,0.189453,0.158203
541861.0,8.886719,-0.703125,3.597656,-0.261719,0.125,0.445312,0.005859,0.275391,0.144531
541876.0,8.882812,-0.394531,3.523438,-0.21875,0.246094,0.382812,-0.025391,0.402344,0.123047
541900.0,8.960938,-0.511719,3.597656,-0.179688,0.253906,0.394531,-0.091797,0.439453,0.113281
541916.0,9.1875,-0.855469,3.445312,-0.046875,0.15625,0.273438,-0.337891,0.443359,0.023438
541940.0,9.121094,-1.46875,3.292969,0.03125,-0.65625,-0.058594,-0.337891,0.439453,-0.070312
541957.0,9.078125,-1.699219,3.253906,0.007812,-0.769531,-0.136719,-0.109375,0.423828,-0.105469
541980.0,9.121094,-1.503906,3.214844,0.078125,-0.722656,-0.285156,0.173828,0.392578,-0.113281
541996.0,9.003906,-1.277344,3.253906,0.015625,-0.625,-0.324219,0.376953,0.337891,-0.085938
542020.0,8.804688,-0.625,3.445312,-0.183594,0.078125,-0.179688,0.423828,0.25,-0.029297
542036.0,8.730469,-0.394531,3.597656,-0.214844,0.214844,-0.125,0.318359,0.169922,0.027344
542060.0,8.460938,-0.433594,3.867188,-0.503906,0.230469,0.171875,0.216797,0.113281,0.068359
542077.0,8.34375,-0.433594,3.828125,-0.621094,0.230469,0.164062,0.224609,0.083984,0.097656
542091.0,8.34375,-0.394531,3.75,-0.496094,0.308594,-0.003906,0.234375,0.070312,0.095703
542107.0,8.726562,-0.242188,3.558594,-0.335938,0.382812,-0.050781,0.224609,0.041016,0.083984
542130.0,8.699219,-0.28125,3.675781,-0.25,0.382812,-0.066406,0.208984,0.042969,0.097656
542146.0,8.621094,-0.355469,3.828125,-0.335938,0.347656,0.007812,0.214844,-0.005859,0.107422
542170.0,8.539062,-0.28125,3.828125,-0.40625,0.375,0.09375,0.214844,-0.042969,0.064453
542187.0,8.660156,-0.242188,3.597656,-0.40625,0.414062,0.015625,0.154297,-0.072266,0.015625
542210.0,8.726562,-0.242188,3.40625,-0.222656,0.40625,-0.3125,0.128906,-0.074219,0.003906
542242.0,8.617188,-0.394531,3.75,-0.351562,0.253906,0.054688,0.072266,-0.138672,0.068359
542280.0,8.808594,-0.433594,3.867188,-0.183594,0.222656,0.242188,0.101562,-0.191406,0.097656
542297.0,9.042969,-0.394531,3.714844,-0.066406,0.230469,0.179688,0.099609,-0.212891,0.085938
542321.0,9.0,-0.433594,3.828125,-0.015625,0.246094,0.273438,0.117188,-0.210938,0.105469
542338.0,8.964844,-0.316406,3.828125,-0.0625,0.285156,0.296875,0.144531,-0.236328,0.142578
542361.0,8.960938,-0.089844,3.636719,-0.085938,0.613281,0.167969,0.089844,-0.257812,0.146484
542377.0,9.0,-0.164062,3.523438,-0.085938,0.621094,0.113281,-0.011719,-0.222656,0.105469
542417.0,9.003906,-0.511719,3.40625,-0.117188,0.269531,0.078125,-0.029297,-0.1875,0.011719
542432.0,9.039062,-0.511719,3.332031,0.03125,0.238281,-0.074219,-0.015625,-0.173828,0.005859
542448.0,9.003906,-0.394531,3.253906,-0.015625,0.308594,-0.097656,-0.021484,-0.162109,-0.001953
542472.0,9.003906,-0.472656,3.40625,-0.109375,0.277344,0.140625,-0.009766,-0.169922,0.0
542488.0,9.039062,-0.433594,3.367188,-0.117188,0.269531,0.15625,0.017578,-0.15625,-0.017578
542511.0,9.308594,-0.242188,3.175781,0.175781,0.492188,-0.035156,-0.011719,-0.134766,-0.037109
542528.0,9.382812,-0.355469,3.136719,0.25,0.445312,-0.058594,-0.101562,-0.105469,-0.083984
542551.0,9.121094,-0.585938,3.445312,-0.03125,0.125,0.28125,-0.095703,-0.085938,-0.101562
542568.0,9.121094,-0.472656,3.523438,-0.070312,0.15625,0.367188,-0.050781,-0.072266,-0.095703
542582.0,9.121094,-0.355469,3.484375,0.042969,0.371094,0.226562,-0.037109,-0.044922,-0.097656
542598.0,9.382812,-0.355469,3.214844,0.152344,0.371094,0.113281,-0.076172,-0.001953,-0.121094
542621.0,9.269531,-0.625,3.367188,0.113281,0.023438,0.226562,-0.099609,0.019531,-0.136719
542638.0,9.117188,-0.703125,3.523438,-0.003906,-0.070312,0.375,-0.03125,0.027344,-0.138672
542661.0,9.039062,-0.394531,3.40625,-0.117188,0.207031,0.25,0.009766,0.044922,-0.119141
542678.0,9.039062,-0.355469,3.292969,-0.117188,0.238281,0.175781,-0.060547,0.072266,-0.117188
542701.0,9.1875,-0.546875,3.253906,0.050781,0.007812,0.082031,-0.103516,0.070312,-0.128906
542718.0,9.121094,-0.738281,3.214844,0.011719,-0.117188,0.035156,-0.035156,0.076172,-0.152344
542741.0,8.960938,-0.546875,3.292969,-0.1875,-0.046875,0.089844,0.033203,0.082031,-0.148438
542758.0,8.960938,-0.355469,3.253906,-0.214844,0.050781,0.121094,0.023438,0.068359,-0.152344
542774.0,9.003906,-0.316406,3.175781,-0.140625,0.179688,-0.089844,0.011719,0.076172,-0.15625
542811.0,9.152344,-0.355469,3.101562,0.027344,0.042969,-0.148438,-0.066406,0.066406,-0.164062
542827.0,9.078125,-0.511719,3.101562,0.027344,-0.050781,-0.148438,-0.083984,0.054688,-0.185547
542883.0,9.078125,-0.28125,3.175781,-0.046875,0.015625,-0.105469,0.011719,0.035156,-0.150391
542898.0,9.121094,-0.28125,3.214844,-0.046875,0.039062,-0.144531,-0.033203,0.035156,-0.138672
542923.0,9.148438,-0.355469,3.175781,0.050781,0.011719,-0.027344,-0.072266,0.03125,-0.142578
542939.0,9.117188,-0.546875,3.214844,0.015625,-0.074219,0.011719,-0.035156,0.025391,-0.128906
542960.0,9.042969,-0.433594,3.292969,-0.0625,-0.027344,0.042969,0.0,0.019531,-0.105469
543002.0,9.152344,-0.203125,3.175781,0.058594,0.171875,-0.089844,0.0,0.035156,-0.058594
543019.0,9.148438,-0.28125,3.253906,0.050781,0.132812,-0.089844,-0.021484,0.033203,-0.052734
543042.0,9.121094,-0.28125,3.332031,0.023438,0.070312,0.066406,0.011719,0.017578,-0.029297
543059.0,9.121094,-0.164062,3.292969,0.023438,0.109375,0.066406,0.009766,0.003906,0.001953
543082.0,9.148438,-0.125,3.214844,0.058594,0.210938,-0.058594,-0.025391,0.013672,0.011719
543099.0,9.1875,-0.242188,3.175781,0.058594,0.179688,-0.128906,-0.017578,0.021484,0.011719
543113.0,9.1875,-0.203125,3.175781,0.058594,0.164062,-0.058594,-0.009766,0.013672,0.015625
543129.0,9.082031,-0.164062,3.332031,0.015625,0.164062,0.019531,-0.007812,-0.009766,0.046875
543152.0,9.039062,-0.164062,3.175781,-0.0625,0.15625,-0.089844,-0.025391,-0.033203,0.050781
543192.0,9.0,-0.511719,3.101562,-0.109375,-0.175781,-0.132812,-0.052734,-0.029297,0.037109
543208.0,8.882812,-0.355469,3.136719,-0.148438,-0.144531,-0.097656,0.066406,-0.0625,0.0625
543232.0,9.003906,-0.242188,3.0625,-0.109375,0.109375,-0.148438,0.052734,-0.082031,0.072266
543263.0,8.921875,-0.355469,3.023438,-0.164062,-0.058594,-0.117188,-0.058594,-0.111328,0.072266
543279.0,9.039062,-0.472656,3.101562,-0.117188,-0.097656,-0.0625,-0.011719,-0.126953,0.072266
543301.0,9.152344,-0.28125,3.023438,0.019531,0.117188,-0.109375,0.011719,-0.128906,0.072266
543343.0,9.1875,-0.394531,3.175781,0.042969,0.035156,0.097656,-0.035156,-0.138672,0.068359
543359.0,9.152344,-0.511719,3.214844,0.003906,-0.042969,0.183594,0.017578,-0.115234,0.054688
543382.0,9.1875,-0.316406,3.0625,0.035156,0.128906,0.023438,0.068359,-0.101562,0.048828
543399.0,9.269531,-0.125,3.023438,0.027344,0.25,0.0,0.013672,-0.107422,0.0625
543422.0,9.304688,-0.242188,3.0625,0.136719,0.226562,0.070312,-0.054688,-0.107422,0.058594
543439.0,9.152344,-0.472656,3.101562,0.058594,0.121094,0.117188,-0.048828,-0.115234,0.056641
543454.0,9.117188,-0.546875,3.0625,-0.0625,-0.09375,0.101562,-0.021484,-0.123047,0.048828
543470.0,9.121094,-0.433594,2.945312,-0.070312,-0.054688,0.070312,0.035156,-0.115234,0.029297
543492.0,9.148438,-0.28125,2.871094,-0.035156,0.210938,-0.042969,0.039062,-0.115234,0.025391
543532.0,9.121094,-0.433594,2.910156,-0.085938,0.066406,0.050781,-0.017578,-0.162109,0.013672
543549.0,9.121094,-0.433594,2.792969,-0.09375,-0.011719,0.027344,0.005859,-0.193359,-0.025391
543572.0,9.226562,-0.316406,2.527344,0.089844,0.027344,-0.488281,0.009766,-0.189453,-0.03125
543603.0,9.039062,-0.355469,2.601562,-0.125,-0.019531,-0.328125,-0.042969,-0.228516,-0.058594
543620.0,9.042969,-0.316406,2.679688,-0.179688,-0.027344,-0.257812,-0.021484,-0.322266,-0.0625
543644.0,9.152344,-0.28125,2.449219,-0.042969,0.03125,-0.339844,-0.009766,-0.347656,-0.080078
543660.0,9.425781,-0.316406,2.371094,0.097656,-0.019531,-0.339844,-0.082031,-0.353516,-0.115234
543684.0,9.304688,-0.355469,2.640625,0.066406,-0.074219,-0.007812,-0.115234,-0.298828,-0.089844
543700.0,9.265625,-0.394531,2.792969,0.058594,-0.074219,0.054688,-0.056641,-0.289062,-0.046875
543722.0,9.503906,-0.394531,2.832031,0.226562,-0.121094,0.285156,-0.03125,-0.300781,-0.039062
543740.0,9.648438,-0.394531,2.601562,0.339844,-0.136719,0.203125,-0.048828,-0.230469,-0.039062
543767.0,9.5,-0.472656,2.71875,0.210938,-0.214844,0.257812,-0.023438,-0.117188,-0.021484
543793.0,9.460938,-0.355469,2.753906,0.171875,-0.097656,0.324219,0.052734,-0.085938,-0.007812
543810.0,9.609375,-0.242188,2.410156,0.238281,-0.03125,0.179688,0.060547,-0.048828,-0.005859
543834.0,9.574219,-0.394531,2.257812,0.277344,-0.152344,-0.15625,0.03125,-0.001953,-0.019531
543849.0,9.382812,-0.511719,2.488281,0.164062,-0.230469,-0.042969,0.09375,-0.025391,-0.011719
543873.0,9.308594,-0.355469,2.410156,0.011719,-0.121094,0.003906,0.123047,-0.041016,-0.005859
543905.0,9.421875,-0.125,2.144531,0.117188,0.09375,-0.246094,0.113281,-0.021484,-0.007812
543930.0,9.1875,-0.242188,2.449219,-0.035156,-0.023438,-0.011719,0.154297,-0.029297,0.003906
543945.0,9.304688,-0.203125,2.488281,0.039062,0.078125,-0.003906,0.169922,-0.029297,0.007812
543960.0,9.464844,-0.011719,2.179688,0.078125,0.113281,-0.117188,0.15625,-0.011719,-0.007812
544001.0,9.425781,-0.050781,2.449219,0.148438,0.183594,-0.039062,0.097656,0.003906,-0.001953
544024.0,9.347656,-0.125,2.371094,0.03125,0.0625,-0.003906,0.101562,0.005859,0.005859
544064.0,9.5,-0.203125,2.179688,0.1875,-0.023438,-0.203125,0.070312,0.027344,0.003906
544081.0,9.386719,-0.28125,2.371094,0.148438,-0.0625,-0.09375,0.105469,0.011719,0.015625
544096.0,9.34375,-0.316406,2.410156,-0.003906,-0.136719,-0.003906,0.128906,0.005859,0.021484
544111.0,9.464844,-0.203125,2.21875,0.070312,-0.0625,-0.085938,0.132812,0.001953,0.025391
544135.0,9.425781,-0.125,2.296875,0.109375,0.046875,-0.085938,0.103516,-0.001953,0.035156
544150.0,9.347656,-0.28125,2.410156,0.070312,0.015625,-0.011719,0.097656,-0.005859,0.035156
544173.0,9.230469,-0.28125,2.335938,-0.175781,-0.085938,0.03125,0.107422,-0.001953,0.041016
544191.0,9.382812,-0.164062,2.179688,-0.097656,-0.046875,-0.007812,0.125,-0.001953,0.044922
544213.0,9.464844,-0.164062,2.21875,0.0625,0.03125,-0.078125,0.105469,-0.005859,0.029297
544231.0,9.347656,-0.28125,2.410156,-0.015625,-0.046875,0.039062,0.111328,-0.029297,0.023438
544255.0,9.308594,-0.203125,2.296875,-0.089844,-0.007812,0.0,0.119141,-0.03125,0.015625
544271.0,9.34375,-0.125,2.179688,-0.054688,0.03125,-0.070312,0.089844,-0.044922,0.007812
544286.0,9.421875,-0.125,2.144531,0.0625,0.03125,-0.136719,0.078125,-0.044922,0.001953
544301.0,9.503906,-0.242188,2.257812,0.023438,-0.007812,-0.09375,0.085938,-0.054688,-0.003906
544323.0,9.464844,-0.125,2.371094,0.054688,0.0625,0.121094,0.095703,-0.064453,0.0
544363.0,9.421875,-0.28125,2.257812,0.0,-0.101562,0.023438,0.019531,-0.066406,-0.009766
544395.0,9.308594,-0.355469,2.410156,-0.113281,-0.183594,0.191406,0.070312,-0.041016,-0.009766
544412.0,9.265625,-0.242188,2.257812,-0.152344,-0.101562,0.117188,0.121094,-0.048828,-0.017578
544435.0,9.347656,-0.242188,2.144531,-0.078125,-0.078125,-0.066406,0.113281,-0.052734,-0.023438
544452.0,9.386719,-0.164062,2.21875,-0.039062,-0.03125,-0.03125,0.117188,-0.042969,-0.037109
544475.0,9.304688,-0.242188,2.335938,-0.105469,-0.085938,0.132812,0.107422,-0.064453,-0.060547
544491.0,9.304688,-0.355469,2.296875,-0.113281,-0.132812,0.175781,0.083984,-0.095703,-0.132812
544515.0,9.265625,-0.664062,2.027344,-0.144531,-0.554688,-0.160156,0.171875,-0.072266,-0.238281
544531.0,9.308594,-0.242188,1.949219,-0.144531,-0.433594,-0.191406,0.369141,-0.087891,-0.298828
544545.0,9.34375,0.066406,1.988281,-0.070312,0.082031,-0.167969,0.419922,-0.091797,-0.302734
544571.0,9.464844,0.984375,2.066406,-0.039062,0.851562,-0.066406,0.224609,-0.160156,-0.291016
544594.0,9.652344,0.792969,1.949219,0.222656,0.644531,-0.144531,0.023438,-0.097656,-0.285156
544612.0,9.53125,0.523438,1.949219,0.191406,0.46875,-0.179688,-0.029297,0.001953,-0.236328
544626.0,9.425781,0.371094,2.105469,-0.078125,0.039062,0.203125,0.015625,-0.011719,-0.214844
544642.0,9.648438,0.21875,2.335938,0.0,-0.015625,0.285156,0.087891,-0.050781,-0.173828
544664.0,9.914062,0.5625,1.914062,0.488281,0.273438,-0.171875,0.087891,-0.013672,-0.15625
544706.0,9.691406,0.792969,2.371094,0.269531,0.496094,0.269531,-0.048828,0.025391,0.068359
544722.0,9.808594,0.601562,2.105469,0.34375,0.425781,0.15625,-0.15625,0.048828,0.087891
544745.0,9.574219,0.21875,2.027344,0.152344,-0.039062,-0.089844,-0.177734,0.082031,0.072266
544762.0,9.5,0.179688,2.21875,0.085938,-0.070312,-0.058594,-0.105469,0.064453,0.072266
544776.0,9.503906,0.292969,2.21875,0.007812,0.144531,0.117188,-0.101562,0.044922,0.078125
544791.0,9.226562,0.332031,2.066406,-0.070312,0.191406,0.039062,-0.162109,0.025391,0.03125
544815.0,9.148438,-0.011719,1.796875,-0.253906,-0.222656,-0.351562,-0.166016,0.027344,-0.021484
544856.0,9.148438,0.601562,1.683594,-0.261719,0.375,-0.464844,-0.15625,-0.042969,-0.056641
544871.0,9.042969,0.140625,1.796875,-0.375,0.183594,-0.417969,-0.222656,-0.113281,-0.083984
544912.0,9.386719,0.101562,1.988281,-0.152344,-0.207031,-0.027344,-0.117188,-0.146484,-0.083984
544935.0,9.53125,0.332031,1.875,0.105469,0.074219,-0.179688,-0.115234,-0.126953,-0.085938
544967.0,9.53125,0.332031,2.371094,0.097656,0.066406,0.347656,-0.103516,-0.099609,-0.033203
544983.0,9.609375,0.410156,2.371094,0.136719,0.105469,0.425781,-0.126953,-0.064453,0.003906
545006.0,9.886719,0.371094,2.027344,0.4375,0.113281,0.019531,-0.173828,0.001953,0.021484
545022.0,9.84375,0.179688,2.027344,0.4375,0.042969,-0.058594,-0.199219,0.050781,0.027344
545046.0,9.53125,-0.011719,2.296875,0.097656,-0.238281,0.273438,-0.128906,0.025391,0.050781
545063.0,9.386719,-0.089844,2.179688,0.023438,-0.308594,0.234375,-0.095703,-0.007812,0.044922
545086.0,9.34375,0.027344,1.796875,-0.09375,-0.183594,-0.226562,-0.025391,0.007812,0.013672
545103.0,9.460938,0.21875,1.722656,-0.015625,-0.0625,-0.265625,0.009766,0.023438,0.0
545117.0,9.460938,0.332031,1.722656,-0.015625,0.207031,-0.273438,0.003906,0.017578,-0.011719
545132.0,9.304688,0.257812,1.875,-0.09375,0.121094,-0.195312,-0.013672,-0.019531,-0.029297
545155.0,9.304688,0.257812,1.914062,-0.128906,0.039062,-0.109375,-0.013672,-0.039062,-0.027344
545172.0,9.425781,0.332031,1.796875,-0.0625,0.074219,-0.179688,-0.046875,-0.027344,-0.011719
545195.0,9.425781,0.179688,1.835938,-0.023438,-0.039062,-0.179688,-0.044922,-0.017578,-0.013672
545212.0,9.425781,0.140625,1.988281,-0.023438,-0.117188,-0.09375,0.027344,-0.023438,0.021484
545236.0,9.535156,0.332031,2.066406,0.089844,0.121094,0.066406,0.044922,-0.033203,0.025391
545276.0,9.691406,0.371094,1.914062,0.246094,0.175781,-0.078125,-0.052734,-0.009766,0.033203
545292.0,9.535156,0.257812,2.179688,0.128906,0.070312,0.082031,-0.046875,-0.009766,0.074219
545312.0,9.460938,0.292969,2.066406,0.015625,0.085938,0.160156,-0.035156,-0.003906,0.076172
545333.0,9.53125,0.332031,1.914062,0.089844,0.175781,0.003906,-0.070312,0.015625,0.072266
545363.0,9.503906,0.101562,1.914062,0.128906,0.085938,-0.15625,-0.105469,0.050781,0.041016
545386.0,9.304688,0.027344,1.988281,-0.136719,-0.089844,-0.019531,-0.078125,0.025391,0.042969
545403.0,9.347656,-0.050781,1.835938,-0.09375,-0.121094,-0.09375,-0.080078,0.027344,0.035156
545426.0,9.347656,-0.242188,1.757812,-0.125,-0.484375,-0.164062,-0.029297,0.042969,0.017578
545444.0,9.347656,-0.28125,1.875,-0.125,-0.523438,-0.117188,0.080078,0.027344,0.019531
545459.0,9.386719,-0.164062,1.875,-0.039062,-0.277344,-0.046875,0.115234,0.015625,0.033203
545484.0,9.464844,0.21875,1.835938,0.0,-0.023438,-0.117188,0.097656,-0.003906,0.056641
545498.0,9.464844,0.332031,1.875,0.074219,0.191406,-0.039062,0.083984,-0.005859,0.0625
545513.0,9.691406,0.449219,1.949219,0.113281,0.230469,0.0,0.03125,0.005859,0.068359
545537.0,9.53125,0.332031,2.027344,0.074219,0.167969,0.113281,-0.03125,0.035156,0.060547
545553.0,9.5,0.21875,2.066406,0.03125,0.09375,0.074219,-0.042969,0.029297,0.0625
545576.0,9.570312,0.179688,1.835938,0.105469,0.03125,-0.09375,-0.041016,0.035156,0.060547
545648.0,9.386719,-0.050781,1.835938,-0.09375,-0.167969,-0.117188,-0.042969,0.039062,0.03125
545663.0,9.308594,0.066406,1.914062,-0.160156,-0.121094,-0.085938,-0.033203,0.013672,0.052734
545687.0,9.535156,-0.011719,1.988281,0.074219,-0.097656,0.027344,-0.048828,-0.009766,0.052734
545703.0,9.6875,-0.089844,1.875,0.183594,-0.167969,-0.046875,-0.050781,-0.003906,0.041016
545726.0,9.574219,-0.125,2.027344,0.105469,-0.179688,0.074219,-0.048828,-0.001953,0.03125
545798.0,9.460938,-0.011719,1.988281,-0.023438,-0.011719,0.019531,0.025391,0.025391,0.027344
545814.0,9.460938,-0.050781,2.105469,-0.023438,-0.003906,0.089844,0.003906,0.025391,0.037109
545837.0,9.386719,-0.203125,2.027344,-0.101562,-0.179688,0.027344,0.011719,0.025391,0.044922
545854.0,9.386719,-0.164062,1.988281,-0.140625,-0.171875,0.027344,0.056641,0.021484,0.037109
545878.0,9.425781,-0.089844,1.988281,-0.054688,-0.035156,-0.019531,0.064453,0.025391,0.029297
545894.0,9.382812,-0.125,2.066406,-0.054688,-0.035156,-0.027344,0.082031,0.019531,0.03125
545917.0,9.347656,-0.164062,2.027344,-0.125,-0.085938,0.003906,0.09375,0.017578,0.039062
545934.0,9.347656,-0.089844,1.949219,-0.078125,-0.046875,-0.035156,0.111328,0.027344,0.025391
545957.0,9.425781,-0.089844,1.914062,-0.03125,-0.003906,-0.117188,0.111328,0.033203,0.027344
545988.0,9.386719,-0.125,2.144531,-0.0625,-0.03125,0.105469,0.125,0.021484,0.029297
546004.0,9.464844,-0.089844,2.066406,-0.0625,0.003906,0.066406,0.140625,0.005859,0.046875
546028.0,9.421875,-0.125,1.988281,-0.023438,-0.023438,-0.058594,0.140625,0.019531,0.048828
546045.0,9.386719,-0.089844,2.066406,-0.023438,-0.023438,-0.019531,0.164062,0.019531,0.060547
546068.0,9.460938,0.027344,2.105469,0.015625,0.136719,0.058594,0.158203,0.001953,0.066406
546084.0,9.503906,0.066406,2.066406,0.0625,0.175781,0.019531,0.123047,-0.005859,0.068359
546108.0,9.464844,-0.125,2.027344,0.023438,-0.007812,-0.019531,0.117188,0.007812,0.064453
546125.0,9.464844,-0.125,2.144531,0.0625,0.0,0.058594,0.144531,0.003906,0.078125
546144.0,9.386719,-0.011719,2.105469,-0.015625,0.042969,0.132812,0.136719,-0.007812,0.087891
546164.0,9.386719,-0.050781,1.988281,-0.054688,0.128906,0.019531,0.111328,-0.005859,0.074219
546185.0,9.425781,-0.125,2.105469,-0.054688,-0.015625,0.019531,0.142578,-0.009766,0.078125
546205.0,9.421875,-0.089844,2.066406,0.023438,0.074219,0.058594,0.148438,-0.017578,0.070312
546225.0,9.503906,0.027344,1.988281,0.0625,0.191406,0.027344,0.123047,-0.027344,0.072266
546245.0,9.574219,-0.011719,2.105469,0.0625,0.199219,-0.050781,0.099609,-0.025391,0.076172
546264.0,9.460938,-0.089844,2.21875,0.0625,0.097656,0.105469,0.113281,-0.03125,0.072266
546290.0,9.460938,0.027344,2.105469,0.023438,0.230469,0.074219,0.119141,-0.029297,0.070312
546315.0,9.503906,0.101562,1.988281,0.0625,0.3125,-0.035156,0.095703,-0.003906,0.064453
546336.0,9.5,0.101562,2.105469,0.046875,0.15625,-0.011719,0.083984,-0.005859,0.070312
546369.0,9.460938,0.066406,2.144531,0.007812,0.136719,0.066406,0.039062,-0.015625,0.058594
546385.0,9.535156,0.027344,2.066406,0.074219,0.136719,0.035156,0.013672,-0.001953,0.044922
546408.0,9.425781,-0.089844,2.144531,-0.039062,-0.019531,0.058594,0.007812,0.001953,0.037109
546425.0,9.421875,-0.125,2.144531,-0.03125,-0.0625,0.066406,0.021484,0.009766,0.015625
546448.0,9.464844,-0.011719,2.066406,0.0,0.050781,-0.027344,0.035156,0.017578,0.011719
546465.0,9.425781,0.027344,2.066406,0.0,0.089844,-0.027344,0.001953,0.017578,-0.005859
546485.0,9.382812,-0.050781,2.179688,-0.070312,0.011719,0.050781,-0.005859,0.017578,0.001953
546505.0,9.34375,-0.050781,2.105469,-0.070312,0.011719,0.085938,-0.011719,0.021484,-0.007812
546520.0,9.347656,-0.050781,2.027344,-0.109375,0.003906,-0.160156,-0.007812,0.029297,-0.019531
546535.0,9.382812,0.027344,1.949219,-0.101562,0.042969,-0.167969,-0.007812,0.023438,-0.023438
546558.0,9.421875,0.140625,2.066406,-0.015625,0.179688,-0.035156,-0.017578,0.013672,-0.025391
546598.0,9.5,-0.089844,1.988281,0.070312,-0.066406,-0.113281,-0.078125,0.005859,-0.052734
546669.0,9.421875,-0.164062,2.027344,-0.007812,-0.164062,-0.082031,-0.064453,0.003906,-0.064453
546686.0,9.460938,-0.089844,2.027344,-0.007812,-0.132812,-0.121094,-0.068359,0.001953,-0.0625
546709.0,9.5,-0.164062,2.066406,0.070312,-0.1875,-0.042969,-0.082031,-0.003906,-0.056641
546725.0,9.503906,-0.28125,2.027344,0.105469,-0.226562,-0.082031,-0.103516,-0.005859,-0.064453
546749.0,9.421875,-0.316406,2.066406,-0.007812,-0.347656,-0.035156,-0.0625,-0.015625,-0.066406
546765.0,9.5,-0.242188,2.066406,0.03125,-0.3125,-0.027344,-0.023438,-0.017578,-0.068359
546789.0,9.460938,-0.089844,1.988281,0.03125,-0.144531,-0.105469,-0.017578,-0.019531,-0.048828
546806.0,9.421875,-0.011719,2.105469,-0.007812,-0.066406,-0.066406,-0.042969,-0.029297,-0.03125
546826.0,9.425781,-0.050781,2.105469,-0.046875,-0.113281,0.019531,-0.068359,-0.033203,-0.023438
546846.0,9.460938,-0.089844,1.988281,-0.007812,-0.113281,0.019531,-0.060547,-0.007812,-0.019531
546875.0,9.503906,-0.011719,2.066406,0.0625,-0.074219,-0.011719,-0.066406,-0.013672,-0.013672
546900.0,9.535156,-0.011719,2.027344,0.097656,-0.074219,-0.042969,-0.070312,-0.017578,-0.013672
546916.0,9.570312,-0.011719,2.027344,0.097656,-0.074219,-0.003906,-0.09375,-0.017578,-0.009766
546939.0,9.5,-0.125,2.066406,0.03125,0.007812,0.011719,-0.097656,-0.009766,-0.011719
546956.0,9.503906,-0.125,2.144531,0.039062,0.007812,0.011719,-0.060547,0.001953,-0.001953
546979.0,9.535156,-0.089844,1.988281,0.066406,0.042969,-0.066406,-0.050781,0.005859,0.001953
547010.0,9.609375,-0.050781,1.914062,0.105469,0.121094,-0.074219,-0.0625,0.03125,-0.001953
547026.0,9.535156,-0.050781,2.179688,0.097656,0.082031,0.042969,-0.085938,0.001953,0.001953
547048.0,9.503906,-0.242188,2.027344,0.015625,-0.117188,-0.035156,-0.091797,0.003906,-0.007812
547061.0,9.464844,-0.28125,1.988281,-0.023438,-0.15625,-0.074219,-0.064453,0.035156,-0.021484
547088.0,9.425781,-0.164062,2.105469,-0.0625,-0.03125,0.035156,-0.037109,0.029297,-0.001953
547129.0,9.460938,-0.125,2.066406,-0.023438,0.007812,-0.011719,-0.003906,0.027344,-0.009766
547147.0,9.460938,-0.050781,2.066406,-0.023438,0.082031,0.027344,-0.029297,0.023438,-0.009766
547161.0,9.464844,-0.089844,2.105469,-0.015625,0.015625,-0.050781,-0.035156,0.027344,-0.019531
547177.0,9.464844,-0.125,2.027344,-0.015625,0.007812,-0.019531,-0.015625,0.027344,-0.019531
547217.0,9.460938,-0.050781,2.066406,-0.046875,0.074219,0.050781,-0.027344,0.023438,-0.023438
547239.0,9.425781,-0.125,2.066406,-0.046875,-0.007812,-0.035156,-0.023438,0.025391,-0.025391
547256.0,9.421875,-0.089844,2.066406,-0.039062,0.019531,0.003906,-0.007812,0.027344,-0.017578
547279.0,9.421875,-0.011719,2.105469,-0.039062,0.097656,0.003906,-0.013672,0.021484,-0.015625
547319.0,9.382812,-0.050781,2.066406,-0.0625,0.042969,-0.042969,-0.052734,0.023438,-0.015625
547351.0,9.386719,-0.050781,2.144531,-0.023438,0.074219,0.027344,-0.042969,0.009766,0.0
547367.0,9.464844,-0.011719,2.105469,-0.023438,0.113281,-0.003906,-0.070312,0.011719,-0.005859
547391.0,9.421875,-0.089844,2.066406,-0.015625,-0.011719,-0.042969,-0.0625,0.013672,-0.011719
547408.0,9.460938,-0.011719,2.144531,-0.015625,-0.011719,-0.003906,-0.052734,0.007812,-0.009766
547429.0,9.386719,-0.011719,2.179688,-0.054688,0.066406,0.070312,-0.066406,0.013672,-0.005859
547470.0,9.503906,-0.050781,2.027344,0.070312,0.019531,-0.089844,-0.066406,0.019531,-0.007812
547518.0,9.5,-0.125,2.105469,0.070312,-0.011719,0.0625,-0.078125,-0.003906,-0.019531
547540.0,9.386719,-0.089844,2.105469,-0.046875,-0.011719,-0.011719,-0.083984,0.009766,-0.019531
547557.0,9.382812,-0.050781,2.179688,-0.015625,0.019531,0.027344,-0.052734,0.007812,-0.019531
547580.0,9.421875,-0.089844,2.105469,-0.007812,-0.019531,-0.019531,-0.054688,0.007812,-0.027344
547620.0,9.34375,-0.050781,2.179688,-0.085938,0.011719,0.046875,-0.089844,0.003906,-0.035156
547637.0,9.425781,-0.125,2.105469,-0.085938,-0.027344,0.046875,-0.107422,0.015625,-0.044922
547660.0,9.464844,-0.164062,2.144531,0.039062,-0.117188,0.011719,-0.095703,0.021484,-0.046875
547677.0,9.460938,-0.089844,2.21875,0.039062,-0.042969,0.046875,-0.054688,0.001953,-0.046875
547692.0,9.460938,-0.089844,2.21875,0.078125,-0.003906,0.078125,-0.056641,-0.001953,-0.042969
547708.0,9.5,-0.011719,2.144531,0.078125,-0.003906,0.078125,-0.074219,0.003906,-0.042969
547731.0,9.425781,-0.050781,2.105469,0.0,-0.011719,-0.035156,-0.085938,0.017578,-0.050781
547748.0,9.386719,-0.089844,2.179688,-0.007812,-0.050781,-0.003906,-0.052734,0.015625,-0.050781
547780.0,9.425781,0.027344,2.066406,-0.007812,0.050781,-0.089844,-0.048828,0.009766,-0.048828
547811.0,9.421875,-0.089844,2.179688,-0.007812,-0.074219,0.015625,-0.085938,0.017578,-0.041016
547828.0,9.5,-0.089844,2.144531,-0.007812,-0.074219,0.015625,-0.076172,0.019531,-0.037109
547848.0,9.386719,-0.089844,2.105469,0.0,-0.074219,-0.050781,-0.0625,0.021484,-0.037109
547869.0,9.425781,-0.050781,2.179688,0.0,-0.042969,-0.058594,-0.058594,0.015625,-0.025391
547883.0,9.425781,-0.011719,2.21875,-0.039062,-0.003906,-0.019531,-0.070312,0.017578,-0.019531
547908.0,9.382812,-0.164062,2.066406,-0.039062,-0.148438,-0.058594,-0.064453,0.029297,-0.011719
547928.0,9.386719,-0.125,2.144531,-0.078125,-0.179688,-0.058594,-0.015625,0.011719,0.003906
547961.0,9.425781,-0.011719,2.21875,0.007812,0.027344,0.054688,-0.025391,-0.013672,0.015625
547978.0,9.421875,-0.089844,2.105469,0.007812,-0.011719,-0.019531,-0.052734,0.0,-0.001953
548001.0,9.347656,-0.164062,2.144531,-0.070312,-0.109375,-0.011719,-0.046875,0.007812,0.013672
548018.0,9.386719,-0.089844,2.179688,-0.070312,-0.035156,0.101562,-0.025391,-0.013672,0.011719
548033.0,9.386719,-0.125,2.144531,0.015625,-0.09375,-0.089844,-0.023438,-0.011719,0.001953
548072.0,9.425781,-0.125,2.179688,0.015625,-0.046875,0.039062,-0.017578,-0.017578,0.025391
548088.0,9.425781,-0.164062,2.179688,0.046875,-0.039062,0.039062,-0.015625,-0.013672,0.029297
548112.0,9.464844,-0.203125,2.144531,0.054688,-0.101562,0.003906,0.005859,-0.013672,0.027344
548129.0,9.535156,-0.125,2.179688,0.085938,-0.054688,0.039062,0.023438,-0.013672,0.025391
548151.0,9.421875,-0.125,2.144531,0.0,-0.007812,0.011719,0.029297,-0.007812,0.017578
548169.0,9.386719,-0.125,2.21875,-0.039062,0.0,0.046875,0.039062,-0.013672,0.039062
548183.0,9.382812,-0.089844,2.21875,-0.039062,0.074219,0.011719,0.035156,-0.009766,0.041016
548199.0,9.503906,-0.011719,2.066406,0.039062,0.121094,-0.066406,0.019531,0.001953,0.039062
548221.0,9.425781,-0.164062,2.179688,0.0,-0.023438,0.046875,0.013672,0.0,0.037109
548232.0,9.386719,-0.203125,2.257812,-0.046875,-0.0625,0.132812,0.03125,-0.015625,0.039062
548249.0,9.382812,-0.242188,2.296875,-0.039062,-0.09375,0.164062,0.046875,-0.009766,0.041016
548269.0,9.421875,-0.089844,2.105469,0.0,0.023438,0.011719,0.046875,0.0,0.039062
548302.0,9.34375,-0.28125,2.105469,-0.078125,-0.125,-0.027344,0.039062,0.001953,0.023438
548319.0,9.34375,-0.28125,2.179688,-0.078125,-0.160156,0.046875,0.083984,-0.013672,0.03125
548373.0,9.425781,-0.164062,2.179688,0.0,0.015625,0.046875,0.078125,-0.013672,0.035156
548389.0,9.5,-0.125,2.179688,0.039062,0.054688,0.054688,0.095703,-0.003906,0.039062
548413.0,9.425781,-0.050781,2.105469,0.0,0.128906,-0.027344,0.085938,-0.003906,0.033203
548429.0,9.386719,-0.125,2.144531,-0.039062,0.128906,0.011719,0.078125,-0.013672,0.029297
548453.0,9.34375,-0.125,2.066406,-0.078125,0.054688,-0.058594,0.064453,0.005859,0.03125
548469.0,9.269531,-0.089844,2.027344,-0.121094,0.089844,-0.136719,0.066406,-0.015625,0.044922
548493.0,9.386719,-0.164062,1.988281,-0.03125,0.015625,-0.128906,0.064453,-0.021484,0.03125
548510.0,9.464844,-0.242188,2.027344,-0.03125,-0.023438,-0.128906,0.072266,-0.017578,0.015625
548524.0,9.425781,-0.203125,2.105469,-0.03125,0.0,0.042969,0.083984,-0.027344,0.015625
548540.0,9.464844,-0.050781,2.21875,0.007812,0.039062,0.078125,0.083984,-0.046875,0.019531
548562.0,9.53125,-0.089844,2.105469,0.121094,0.074219,0.019531,0.064453,-0.046875,0.021484
548574.0,9.535156,-0.164062,2.066406,0.121094,0.0,-0.019531,0.027344,-0.027344,0.013672
548602.0,9.460938,-0.203125,2.179688,0.039062,-0.046875,0.101562,0.060547,-0.019531,0.011719
548619.0,9.421875,-0.089844,2.105469,0.0,0.03125,0.101562,0.087891,-0.03125,0.023438
548642.0,9.464844,-0.011719,1.949219,0.039062,0.144531,-0.121094,0.072266,-0.033203,0.027344
548659.0,9.460938,-0.050781,2.066406,0.03125,0.105469,-0.089844,0.058594,-0.027344,0.025391
548682.0,9.425781,0.027344,2.179688,-0.015625,0.183594,0.117188,0.052734,-0.037109,0.027344
548699.0,9.421875,-0.011719,2.066406,0.023438,0.136719,0.042969,0.019531,-0.027344,0.023438
548714.0,9.386719,-0.011719,2.105469,-0.0625,0.050781,0.003906,0.013672,-0.027344,0.021484
548730.0,9.421875,-0.089844,2.105469,-0.054688,0.050781,0.050781,0.013672,-0.029297,0.025391
548753.0,9.5,-0.089844,2.027344,0.0625,0.050781,-0.027344,0.013672,-0.019531,0.03125
548793.0,9.464844,-0.089844,2.179688,0.015625,0.050781,0.132812,0.023438,-0.033203,0.037109
548810.0,9.503906,-0.011719,2.179688,0.015625,0.128906,0.105469,0.003906,-0.027344,0.039062
548833.0,9.460938,-0.089844,2.027344,0.015625,0.050781,-0.019531,-0.023438,-0.019531,0.037109
548850.0,9.425781,-0.203125,2.066406,-0.023438,-0.023438,-0.050781,-0.013672,-0.019531,0.033203
548873.0,9.460938,-0.125,2.105469,0.007812,0.023438,0.066406,0.023438,-0.027344,0.037109
548890.0,9.535156,-0.050781,2.066406,0.007812,0.066406,0.066406,0.025391,-0.037109,0.037109
548910.0,9.503906,-0.125,2.027344,0.046875,0.066406,-0.042969,-0.015625,-0.013672,0.025391
548931.0,9.382812,-0.089844,2.144531,0.039062,0.03125,-0.003906,-0.013672,-0.015625,0.044922
548951.0,9.421875,-0.089844,2.066406,-0.039062,0.066406,0.074219,-0.029297,-0.011719,0.029297
548984.0,9.464844,-0.125,1.988281,0.0,0.039062,-0.042969,-0.023438,-0.007812,0.015625
549000.0,9.53125,-0.125,2.027344,0.046875,0.03125,-0.003906,-0.044922,-0.017578,0.017578
549015.0,9.5,-0.089844,2.027344,0.046875,0.0,0.035156,-0.058594,-0.021484,0.011719
549030.0,9.421875,-0.28125,2.027344,0.0,-0.039062,0.003906,-0.058594,-0.027344,0.005859
549055.0,9.464844,-0.316406,2.066406,-0.039062,-0.070312,0.042969,-0.035156,-0.015625,0.003906
549070.0,9.464844,-0.203125,1.988281,0.039062,-0.070312,-0.027344,-0.03125,-0.005859,-0.003906
549094.0,9.464844,-0.28125,1.988281,-0.007812,-0.101562,-0.027344,-0.03125,-0.009766,-0.007812
549110.0,9.421875,-0.242188,2.027344,0.0,-0.101562,0.011719,-0.021484,-0.023438,-0.009766
549134.0,9.460938,-0.203125,1.949219,-0.007812,-0.023438,-0.050781,-0.023438,-0.021484,-0.013672
549150.0,9.503906,-0.242188,1.914062,0.039062,-0.023438,-0.085938,-0.025391,-0.015625,-0.017578
549172.0,9.425781,-0.242188,2.066406,-0.046875,-0.0625,0.066406,-0.019531,-0.015625,-0.019531
549213.0,9.503906,-0.164062,1.914062,0.039062,0.023438,-0.078125,-0.035156,-0.003906,-0.013672
549231.0,9.570312,-0.164062,1.949219,0.066406,0.015625,-0.078125,-0.037109,-0.001953,-0.007812
549245.0,9.503906,-0.203125,1.988281,0.066406,-0.015625,0.074219,-0.041016,-0.005859,-0.001953
549261.0,9.5,-0.28125,2.066406,0.03125,-0.015625,0.074219,-0.035156,-0.017578,0.0
549285.0,9.574219,-0.164062,1.988281,0.097656,0.03125,0.003906,-0.023438,-0.015625,0.0
549300.0,9.574219,-0.164062,1.914062,0.097656,0.070312,-0.035156,-0.041016,0.001953,0.005859
549323.0,9.421875,-0.28125,1.988281,-0.0625,-0.085938,0.003906,-0.044922,0.011719,0.005859
549356.0,9.5,-0.203125,1.949219,0.015625,0.007812,-0.042969,-0.025391,-0.007812,0.023438
549395.0,9.5,-0.394531,1.949219,-0.023438,-0.128906,0.011719,0.003906,0.005859,0.011719
549411.0,9.34375,-0.242188,2.066406,-0.101562,-0.121094,0.082031,0.025391,0.001953,0.027344
549434.0,9.503906,-0.164062,1.914062,0.023438,0.078125,-0.078125,0.001953,0.001953,0.021484
549451.0,9.5,-0.28125,1.796875,-0.015625,0.039062,-0.148438,-0.019531,0.015625,0.009766
549474.0,9.460938,-0.355469,1.988281,-0.015625,-0.105469,0.003906,-0.007812,0.015625,0.007812
549491.0,9.503906,-0.28125,1.988281,-0.015625,-0.058594,0.003906,0.035156,-0.011719,0.011719
549515.0,9.570312,-0.203125,1.949219,0.097656,0.054688,-0.027344,0.015625,-0.007812,0.009766
549531.0,9.53125,-0.203125,1.988281,0.105469,0.054688,-0.027344,-0.001953,0.007812,0.009766
549554.0,9.5,-0.28125,2.066406,0.015625,-0.015625,0.089844,-0.003906,0.011719,0.009766
549571.0,9.503906,-0.28125,2.027344,0.015625,-0.050781,0.050781,0.011719,0.009766,0.009766
549591.0,9.421875,-0.203125,1.988281,-0.0625,-0.015625,0.003906,0.023438,0.009766,0.009766
549612.0,9.464844,-0.164062,1.875,-0.0625,0.0625,0.003906,0.005859,0.003906,0.001953
549626.0,9.464844,-0.164062,1.835938,-0.0625,0.0625,-0.148438,-0.005859,0.003906,-0.001953
549665.0,9.464844,-0.28125,2.027344,-0.015625,-0.015625,0.050781,0.021484,-0.013672,0.0
549681.0,9.53125,-0.203125,1.914062,0.066406,0.054688,-0.019531,0.001953,0.0,-0.007812
549704.0,9.464844,-0.203125,1.988281,-0.007812,0.054688,0.019531,0.0,0.001953,-0.009766
549721.0,9.5,-0.242188,2.066406,0.03125,0.054688,0.058594,-0.009766,-0.003906,-0.005859
549736.0,9.53125,-0.242188,2.027344,0.066406,0.007812,0.019531,-0.015625,-0.001953,-0.005859
549752.0,9.503906,-0.28125,1.914062,0.058594,0.007812,-0.019531,-0.019531,0.009766,-0.007812
549784.0,9.421875,-0.203125,1.988281,-0.054688,0.046875,0.019531,-0.009766,0.009766,-0.009766
549815.0,9.464844,-0.125,1.875,-0.007812,0.109375,-0.09375,-0.046875,0.005859,0.0
549832.0,9.464844,-0.242188,1.988281,-0.015625,0.039062,-0.027344,-0.041016,0.001953,-0.007812
549855.0,9.464844,-0.242188,2.027344,-0.015625,-0.007812,0.058594,-0.023438,0.001953,-0.001953
549872.0,9.53125,-0.242188,1.875,0.023438,0.03125,-0.019531,-0.03125,0.013672,-0.001953
549892.0,9.535156,-0.203125,1.949219,0.058594,0.03125,-0.171875,-0.046875,0.015625,0.001953
549912.0,9.5,-0.242188,2.179688,0.03125,0.03125,0.136719,-0.039062,-0.015625,0.011719
549926.0,9.460938,-0.28125,2.179688,0.023438,-0.113281,0.128906,-0.033203,-0.017578,0.0
549942.0,9.5,-0.316406,1.835938,0.058594,-0.113281,-0.027344,-0.03125,0.017578,-0.001953
549965.0,9.34375,-0.242188,1.949219,-0.132812,0.0,-0.027344,-0.019531,0.021484,0.003906
549982.0,9.386719,-0.242188,1.988281,-0.09375,0.039062,0.011719,-0.013672,0.009766,-0.001953
550005.0,9.503906,-0.28125,1.835938,0.023438,-0.039062,-0.140625,-0.009766,0.009766,-0.003906
550022.0,9.464844,-0.242188,1.914062,0.023438,-0.039062,-0.101562,-0.023438,0.003906,-0.001953
550045.0,9.5,-0.242188,2.066406,0.03125,0.007812,0.097656,-0.021484,-0.003906,-0.001953
550076.0,9.574219,-0.28125,1.988281,0.105469,-0.03125,0.011719,-0.019531,0.003906,0.001953
550092.0,9.460938,-0.316406,2.027344,0.023438,-0.023438,0.011719,-0.029297,0.013672,0.003906
550116.0,9.460938,-0.316406,2.027344,-0.015625,-0.058594,0.050781,-0.007812,0.009766,0.005859
550133.0,9.460938,-0.242188,1.949219,-0.054688,-0.023438,0.003906,-0.001953,0.011719,0.013672
550154.0,9.421875,-0.242188,1.914062,-0.054688,0.023438,-0.070312,-0.011719,0.009766,0.011719
550186.0,9.386719,-0.28125,2.027344,-0.09375,-0.015625,0.042969,-0.019531,-0.007812,0.007812
550203.0,9.421875,-0.28125,1.988281,-0.046875,0.023438,0.003906,-0.019531,-0.001953,0.001953
550235.0,9.464844,-0.316406,1.949219,-0.007812,-0.035156,-0.035156,-0.027344,0.007812,0.0
550252.0,9.460938,-0.316406,2.027344,-0.007812,-0.035156,0.003906,-0.001953,0.005859,0.003906
550273.0,9.503906,-0.28125,2.027344,0.03125,0.0,0.042969,-0.007812,-0.001953,0.009766
550293.0,9.460938,-0.28125,1.949219,0.03125,0.0,0.042969,-0.021484,0.0,0.001953
550312.0,9.421875,-0.355469,1.949219,0.0,-0.027344,-0.035156,-0.001953,0.003906,-0.005859
550333.0,9.421875,-0.28125,1.988281,-0.039062,-0.066406,-0.035156,0.011719,0.001953,-0.001953
550353.0,9.421875,-0.28125,1.914062,-0.039062,0.039062,-0.035156,-0.005859,0.001953,-0.005859
550386.0,9.5,-0.28125,1.949219,0.039062,0.007812,-0.027344,-0.003906,-0.003906,-0.005859
550403.0,9.5,-0.242188,1.949219,0.039062,0.046875,0.011719,-0.007812,-0.007812,-0.007812
550417.0,9.5,-0.28125,1.949219,0.039062,0.0,-0.027344,-0.009766,-0.005859,-0.009766
550432.0,9.460938,-0.316406,1.988281,0.0,-0.035156,-0.027344,0.009766,-0.007812,-0.011719
550455.0,9.464844,-0.203125,2.027344,0.0,0.078125,0.050781,0.013672,-0.007812,-0.009766
550495.0,9.535156,-0.316406,1.875,0.074219,-0.042969,-0.09375,-0.021484,0.007812,-0.001953
550526.0,9.421875,-0.28125,2.144531,-0.046875,0.0,0.167969,0.005859,-0.003906,0.007812
550542.0,9.535156,-0.28125,1.949219,-0.007812,0.0,0.097656,0.005859,-0.007812,-0.007812
550567.0,9.421875,-0.242188,1.875,-0.046875,0.039062,-0.09375,-0.003906,0.011719,-0.005859
550584.0,9.34375,-0.203125,2.066406,-0.125,0.078125,-0.019531,0.003906,0.005859,0.001953
550606.0,9.425781,-0.355469,1.875,-0.039062,-0.082031,-0.101562,-0.007812,-0.003906,-0.005859
550623.0,9.5,-0.28125,1.796875,0.039062,-0.042969,-0.171875,0.011719,0.003906,-0.005859
550646.0,9.464844,-0.203125,1.988281,0.0,0.070312,0.019531,0.009766,0.003906,-0.005859
550663.0,9.535156,-0.242188,2.105469,0.039062,0.03125,0.097656,0.009766,-0.021484,0.0
550686.0,9.574219,-0.242188,1.988281,0.105469,0.023438,0.027344,0.011719,-0.015625,0.0
550703.0,9.574219,-0.242188,1.988281,0.066406,0.023438,0.105469,-0.003906,0.007812,0.0
550726.0,9.503906,-0.28125,2.027344,0.023438,-0.015625,0.058594,0.005859,0.015625,-0.001953
550743.0,9.464844,-0.242188,2.027344,0.023438,0.023438,0.011719,0.021484,0.015625,0.001953
550758.0,9.464844,-0.164062,1.988281,-0.015625,0.09375,0.050781,0.005859,0.009766,0.001953
550773.0,9.421875,-0.203125,1.914062,-0.015625,0.09375,-0.027344,-0.023438,0.005859,-0.001953
550797.0,9.382812,-0.28125,1.949219,-0.101562,-0.023438,-0.027344,-0.009766,0.011719,-0.011719
550814.0,9.386719,-0.28125,1.988281,-0.054688,-0.023438,0.011719,0.003906,0.013672,-0.009766
550836.0,9.464844,-0.242188,1.988281,-0.007812,0.007812,-0.003906,0.001953,0.007812,-0.013672
550876.0,9.464844,-0.316406,2.066406,-0.007812,-0.066406,0.074219,-0.003906,0.015625,-0.019531
550907.0,9.53125,-0.203125,1.988281,0.066406,0.039062,-0.003906,0.003906,0.013672,-0.021484
550925.0,9.460938,-0.28125,1.949219,0.03125,0.0,-0.042969,-0.011719,0.025391,-0.021484
550947.0,9.421875,-0.28125,2.027344,-0.046875,-0.046875,0.027344,0.001953,0.021484,-0.019531
550964.0,9.460938,-0.203125,1.949219,-0.046875,0.03125,0.019531,0.003906,0.015625,-0.017578
550987.0,9.421875,-0.203125,1.914062,-0.046875,0.023438,-0.09375,-0.009766,0.021484,-0.017578
551004.0,9.421875,-0.242188,2.027344,0.0,0.023438,-0.066406,-0.009766,0.013672,-0.017578
551027.0,9.464844,-0.203125,2.027344,0.0,0.023438,0.011719,-0.007812,0.009766,-0.017578
551044.0,9.421875,-0.203125,1.914062,0.0,0.023438,-0.019531,-0.007812,0.009766,-0.009766
551067.0,9.421875,-0.242188,1.988281,-0.039062,-0.023438,-0.027344,-0.003906,0.013672,-0.007812
551098.0,9.421875,-0.203125,2.027344,-0.03125,0.007812,-0.101562,-0.013672,0.009766,0.001953
551114.0,9.421875,-0.242188,1.835938,-0.03125,-0.023438,-0.132812,-0.019531,0.015625,0.009766
551138.0,9.535156,-0.242188,2.066406,0.089844,-0.023438,0.058594,-0.015625,0.005859,0.011719
551155.0,9.460938,-0.242188,2.179688,-0.023438,-0.015625,0.136719,-0.015625,-0.033203,0.029297
551176.0,9.535156,-0.316406,1.914062,0.082031,-0.082031,-0.085938,-0.013672,-0.027344,0.017578
551224.0,9.386719,-0.28125,2.027344,-0.101562,0.007812,0.066406,-0.021484,-0.005859,0.015625
551248.0,9.425781,-0.355469,1.875,-0.023438,-0.097656,-0.125,-0.011719,-0.003906,0.013672
551265.0,9.464844,-0.28125,2.027344,-0.023438,-0.058594,-0.078125,-0.005859,-0.021484,0.017578
551288.0,9.5,-0.28125,2.066406,0.0625,-0.015625,0.082031,-0.009766,-0.029297,0.019531
551306.0,9.535156,-0.394531,2.066406,0.089844,-0.082031,0.089844,0.001953,-0.021484,0.017578
551327.0,9.460938,-0.394531,2.105469,0.015625,-0.113281,0.121094,0.009766,-0.017578,0.015625
551367.0,9.421875,-0.242188,1.988281,-0.023438,0.0625,0.003906,0.056641,-0.009766,0.017578
551408.0,9.5,-0.125,1.949219,0.046875,0.179688,-0.035156,0.015625,-0.019531,0.017578
551445.0,9.460938,-0.242188,2.066406,0.007812,0.054688,0.082031,0.0,-0.005859,0.011719
551478.0,9.503906,-0.316406,1.949219,0.046875,-0.019531,-0.035156,-0.009766,0.005859,0.011719
551495.0,9.460938,-0.355469,2.027344,0.007812,-0.019531,-0.003906,0.003906,-0.001953,0.013672
551518.0,9.503906,-0.28125,1.988281,0.039062,0.015625,-0.003906,0.011719,-0.003906,0.015625
551535.0,9.464844,-0.28125,1.988281,0.0,0.015625,-0.042969,0.003906,0.003906,0.005859
551558.0,9.425781,-0.316406,2.027344,-0.039062,-0.019531,0.027344,0.015625,0.007812,0.0
551575.0,9.460938,-0.242188,2.066406,-0.039062,0.007812,0.066406,0.015625,0.001953,-0.003906
551596.0,9.460938,-0.28125,1.949219,0.0,0.085938,-0.050781,-0.013672,0.007812,-0.005859
551615.0,9.425781,-0.355469,2.027344,0.0,0.007812,-0.050781,-0.009766,0.001953,-0.007812
551630.0,9.421875,-0.394531,2.027344,0.0,-0.105469,0.019531,0.001953,-0.003906,-0.009766
551646.0,9.382812,-0.355469,1.914062,0.0,-0.066406,-0.019531,0.029297,0.001953,-0.005859
551668.0,9.421875,-0.203125,1.914062,-0.039062,0.085938,-0.085938,0.035156,0.005859,-0.001953
551685.0,9.503906,-0.164062,1.988281,0.007812,0.125,-0.050781,0.03125,-0.011719,0.015625
551709.0,9.421875,-0.316406,1.949219,-0.03125,-0.027344,-0.042969,0.021484,-0.019531,0.027344
551725.0,9.5,-0.28125,1.949219,0.007812,0.007812,-0.042969,0.037109,-0.025391,0.021484
551749.0,9.609375,-0.089844,2.179688,0.152344,0.199219,0.203125,0.050781,-0.064453,0.037109
551765.0,9.730469,-0.011719,2.066406,0.230469,0.207031,0.175781,0.027344,-0.052734,0.019531
551796.0,9.460938,-0.316406,2.027344,0.097656,0.085938,-0.011719,-0.056641,-0.009766,0.042969
551819.0,9.382812,-0.703125,2.066406,-0.109375,-0.414062,0.105469,-0.050781,-0.001953,0.013672
551835.0,9.421875,-0.855469,1.796875,-0.101562,-0.519531,-0.054688,0.029297,0.037109,-0.013672
551859.0,9.304688,-0.546875,1.722656,-0.175781,-0.242188,-0.253906,0.078125,0.035156,-0.023438
551876.0,9.386719,-0.433594,1.875,-0.140625,-0.160156,-0.179688,0.052734,-0.007812,-0.037109
551899.0,9.535156,-0.546875,1.914062,0.050781,-0.226562,-0.046875,0.035156,-0.007812,-0.064453
551916.0,9.535156,-0.511719,1.988281,0.097656,-0.199219,-0.078125,0.035156,0.015625,-0.087891
551931.0,9.5,-0.472656,2.027344,0.089844,-0.113281,0.105469,0.035156,0.021484,-0.097656
551946.0,9.574219,-0.433594,1.988281,0.058594,-0.082031,0.066406,0.046875,0.042969,-0.111328
551970.0,9.460938,-0.394531,1.949219,-0.015625,-0.097656,-0.027344,0.072266,0.0625,-0.113281
551986.0,9.382812,-0.28125,1.949219,-0.023438,-0.066406,-0.035156,0.074219,0.070312,-0.09375
552009.0,9.265625,-0.125,1.875,-0.199219,0.148438,-0.117188,0.082031,0.080078,-0.066406
552026.0,9.304688,-0.050781,1.835938,-0.199219,0.214844,-0.164062,0.083984,0.058594,-0.025391
552050.0,9.34375,0.027344,2.105469,-0.117188,0.285156,0.097656,0.085938,0.015625,0.023438
552067.0,9.421875,0.101562,2.144531,-0.03125,0.316406,0.136719,0.076172,-0.007812,0.068359
552085.0,9.535156,0.140625,2.144531,0.046875,0.398438,0.097656,0.060547,-0.017578,0.097656
552106.0,9.613281,0.101562,2.105469,0.121094,0.421875,0.105469,0.054688,-0.037109,0.111328
552121.0,9.648438,0.066406,2.179688,0.238281,0.363281,0.144531,0.054688,-0.041016,0.115234
552160.0,9.613281,-0.089844,1.914062,0.160156,0.246094,-0.070312,-0.044922,-0.025391,0.103516
552176.0,9.460938,-0.316406,1.988281,0.121094,0.148438,-0.0625,-0.066406,-0.017578,0.076172
552200.0,9.386719,-0.472656,1.949219,-0.070312,-0.105469,-0.027344,-0.070312,-0.013672,0.0625
552216.0,9.347656,-0.511719,1.796875,-0.109375,-0.136719,-0.101562,-0.068359,-0.013672,0.058594
552240.0,9.421875,-0.625,1.835938,-0.03125,-0.226562,-0.132812,-0.070312,-0.013672,0.058594
552257.0,9.53125,-0.703125,2.027344,0.054688,-0.265625,-0.054688,-0.011719,-0.009766,0.0625
552271.0,9.535156,-0.664062,2.105469,0.082031,-0.171875,0.175781,0.013672,-0.015625,0.066406
552296.0,9.464844,-0.472656,2.105469,-0.03125,-0.089844,0.105469,0.039062,0.0,0.048828
552311.0,9.460938,-0.355469,2.027344,0.046875,0.148438,0.027344,0.044922,0.003906,0.037109
552327.0,9.425781,-0.125,2.105469,0.046875,0.234375,0.066406,0.054688,-0.011719,0.023438
552349.0,9.347656,0.027344,1.914062,-0.101562,0.457031,-0.039062,0.056641,-0.029297,0.011719
552366.0,9.1875,0.21875,1.605469,-0.144531,0.523438,-0.1875,-0.048828,-0.082031,-0.074219
552390.0,9.191406,0.371094,1.835938,-0.269531,0.777344,-0.078125,-0.169922,-0.220703,-0.103516
552406.0,9.308594,0.179688,2.144531,-0.160156,0.691406,0.175781,-0.255859,-0.277344,-0.150391
552429.0,9.570312,-0.316406,1.757812,0.089844,0.042969,-0.054688,-0.304688,-0.275391,-0.193359
552447.0,10.035156,-0.625,2.066406,0.273438,-0.128906,0.046875,-0.275391,-0.107422,-0.199219
552461.0,9.996094,-0.738281,2.449219,0.503906,-0.390625,0.953125,-0.080078,-0.056641,-0.183594
552486.0,9.730469,-0.546875,1.796875,0.351562,-0.238281,0.347656,0.103516,0.003906,-0.207031
552506.0,10.113281,-0.855469,1.914062,0.542969,-0.429688,-0.007812,0.335938,0.195312,-0.210938
552526.0,9.84375,-1.046875,2.257812,0.511719,-0.75,0.300781,0.640625,0.425781,-0.322266
552548.0,9.84375,-1.199219,2.488281,0.40625,-1.21875,0.488281,1.107422,0.630859,-0.416016
552580.0,9.882812,0.140625,3.445312,0.46875,-0.039062,1.296875,1.697266,0.824219,-0.464844
552597.0,10.191406,0.832031,3.714844,0.722656,0.226562,1.449219,1.925781,1.085938,-0.599609
552612.0,10.035156,1.097656,3.789062,0.691406,0.945312,1.40625,2.039062,1.210938,-0.685547
552627.0,10.648438,2.171875,3.980469,1.066406,1.132812,1.410156,2.164062,1.583984,-0.882812
552650.0,10.957031,3.4375,4.097656,1.804688,2.398438,1.144531,2.240234,1.855469,-1.080078
552669.0,10.914062,3.933594,4.097656,1.851562,2.683594,0.964844,2.703125,2.5625,-1.898438
552691.0,8.621094,5.734375,4.863281,-0.070312,3.640625,1.167969,2.777344,2.585938,-2.539062
552708.0,8.503906,6.117188,4.289062,-0.191406,3.574219,0.675781,2.775391,2.103516,-3.001953
552721.0,8.695312,6.347656,4.480469,0.644531,3.660156,0.625,2.685547,2.074219,-3.169922
552747.0,9.082031,7.648438,4.554688,1.148438,3.675781,0.351562,2.296875,1.841797,-3.767578
552770.0,9.191406,6.769531,4.863281,2.121094,1.722656,0.558594,2.164062,1.748047,-3.878906
552780.0,9.121094,6.347656,4.824219,2.328125,0.925781,0.511719,1.894531,1.589844,-3.826172
552802.0,8.539062,5.886719,4.25,2.0,-0.089844,-0.484375,1.623047,1.462891,-3.587891
552840.0,6.742188,7.03125,3.789062,1.632812,-0.050781,-0.476562,1.119141,1.121094,-3.447266
552881.0,5.132812,6.386719,3.292969,1.195312,-1.449219,-0.925781,0.603516,0.908203,-3.382812
552897.0,4.289062,6.542969,2.910156,1.117188,-1.515625,-1.132812,-0.162109,0.705078,-2.898438
552921.0,3.101562,6.726562,2.71875,0.226562,-1.496094,-1.625,-0.359375,0.464844,-2.443359
552938.0,2.601562,6.617188,2.527344,0.207031,-1.664062,-1.796875,-0.507812,0.173828,-2.150391
552992.0,1.796875,5.734375,4.25,0.15625,-2.75,-0.273438,0.287109,0.169922,-1.8125
553007.0,1.261719,5.5,3.789062,0.015625,-3.027344,-0.441406,0.357422,0.119141,-1.535156
553031.0,0.996094,6.6875,3.523438,-0.113281,-1.941406,-0.875,0.451172,-0.007812,-1.183594
553048.0,0.804688,7.691406,3.828125,-0.089844,-1.519531,-0.714844,0.490234,-0.119141,-0.962891
553071.0,0.574219,8.914062,4.171875,-0.207031,0.164062,-0.0625,0.244141,-0.152344,-0.908203
553090.0,0.382812,9.179688,4.324219,-0.3125,0.425781,0.097656,-0.238281,-0.078125,-0.96875
553117.0,-0.421875,8.417969,3.558594,-0.722656,0.226562,-0.492188,-1.060547,-0.109375,-0.957031
553141.0,-0.460938,7.0,3.175781,-0.695312,-1.585938,-1.425781,-1.25,-0.183594,-0.90625
553158.0,-0.269531,5.621094,3.636719,-0.648438,-2.40625,-1.28125,-1.179688,-0.371094,-0.494141
553182.0,0.074219,5.082031,4.363281,-0.050781,-3.292969,-0.605469,-0.523438,-0.376953,-0.242188
553198.0,0.152344,5.882812,4.785156,-0.019531,-2.96875,-0.367188,0.146484,-0.3125,-0.189453
553221.0,0.074219,7.109375,5.09375,-0.042969,-1.269531,0.15625,0.451172,-0.173828,-0.128906
553238.0,-0.191406,7.53125,5.128906,-0.164062,-1.0625,0.269531,0.34375,-0.111328,0.009766
553260.0,-0.460938,8.296875,4.671875,-0.609375,-0.136719,-0.148438,0.259766,-0.138672,0.050781
553292.0,-0.191406,8.878906,4.902344,-0.378906,0.429688,0.105469,0.037109,-0.234375,0.037109
553309.0,0.0,8.835938,4.976562,-0.273438,0.4375,0.210938,-0.224609,-0.175781,-0.009766
553331.0,0.074219,8.417969,4.976562,-0.136719,0.015625,0.125,-0.257812,-0.150391,-0.037109
553372.0,0.0,8.53125,4.746094,-0.226562,0.179688,-0.167969,-0.132812,-0.132812,-0.03125
553388.0,0.113281,8.375,4.863281,-0.152344,0.140625,-0.136719,-0.027344,-0.171875,-0.068359
553412.0,0.191406,7.992188,4.902344,-0.050781,-0.355469,-0.011719,0.046875,-0.097656,-0.021484
553428.0,0.074219,8.035156,4.59375,-0.089844,-0.394531,-0.042969,0.037109,-0.005859,-0.001953
553448.0,-0.269531,8.300781,4.519531,-0.433594,-0.15625,-0.042969,0.091797,-0.136719,0.033203
553468.0,0.265625,7.875,5.167969,-0.222656,-0.203125,0.054688,0.201172,-0.177734,0.076172
553488.0,0.191406,8.339844,5.285156,-0.0625,-0.257812,0.46875,0.189453,-0.019531,0.050781
553509.0,0.113281,8.574219,4.976562,-0.144531,0.148438,0.308594,0.019531,0.007812,0.035156
553549.0,0.152344,8.296875,4.671875,-0.230469,0.054688,-0.019531,-0.253906,-0.025391,0.0
553568.0,0.226562,7.878906,4.710938,-0.113281,-0.304688,-0.21875,-0.126953,-0.064453,0.027344
553592.0,0.191406,7.835938,4.902344,-0.128906,-0.488281,0.003906,-0.037109,-0.064453,0.056641
553608.0,0.191406,8.148438,5.015625,-0.144531,-0.332031,0.125,0.203125,-0.019531,0.080078
553632.0,0.304688,8.683594,5.015625,-0.039062,0.332031,0.179688,0.240234,0.013672,0.058594
553649.0,0.457031,8.722656,5.015625,0.039062,0.324219,0.195312,0.134766,0.064453,0.054688
553672.0,0.035156,8.800781,4.9375,-0.316406,0.429688,0.140625,-0.009766,0.09375,0.058594
553689.0,-0.039062,8.835938,4.863281,-0.429688,0.46875,0.066406,-0.107422,0.080078,0.029297
553713.0,0.113281,8.339844,5.015625,-0.222656,-0.011719,0.1875,-0.160156,0.083984,-0.011719
553729.0,0.191406,7.992188,4.976562,-0.167969,-0.226562,0.171875,-0.097656,0.076172,-0.001953
553752.0,0.417969,7.769531,4.746094,0.105469,-0.5625,-0.113281,-0.025391,0.078125,0.03125
553769.0,0.382812,7.535156,4.632812,0.105469,-0.71875,-0.195312,0.046875,0.085938,0.082031
553799.0,0.265625,7.386719,4.632812,-0.0625,-0.953125,-0.203125,0.238281,0.099609,0.230469
553821.0,0.574219,7.074219,4.746094,0.199219,-1.285156,-0.035156,0.271484,0.095703,0.277344
553864.0,0.152344,6.6875,4.59375,-0.324219,-1.738281,-0.054688,0.431641,0.326172,0.640625
553879.0,0.191406,7.453125,4.363281,-0.402344,-1.476562,-0.167969,0.46875,0.306641,0.78125
553919.0,0.765625,9.21875,4.441406,-0.046875,0.574219,-0.144531,0.169922,0.3125,0.751953
553937.0,0.878906,9.144531,4.632812,-0.015625,0.726562,-0.019531,0.017578,0.304688,0.734375
553951.0,0.765625,8.683594,5.015625,-0.15625,0.214844,0.554688,-0.060547,0.326172,0.730469
553972.0,0.878906,8.492188,4.519531,-0.136719,0.039062,0.050781,0.011719,0.402344,0.761719
553990.0,1.1875,8.800781,4.363281,0.007812,0.207031,-0.027344,0.082031,0.480469,0.716797
554014.0,1.148438,8.683594,4.480469,-0.023438,0.261719,0.019531,0.074219,0.525391,0.679688
554029.0,1.070312,8.335938,4.25,-0.09375,0.03125,-0.097656,0.021484,0.511719,0.736328
554070.0,1.222656,8.605469,4.097656,-0.265625,-0.003906,-0.371094,0.214844,0.394531,0.818359
554093.0,1.953125,8.800781,4.554688,0.429688,0.421875,0.117188,0.150391,0.394531,0.761719
554110.0,2.257812,8.1875,5.09375,0.695312,0.203125,0.472656,0.125,0.597656,0.759766
554124.0,1.992188,7.804688,4.902344,0.121094,-0.742188,0.125,0.050781,0.644531,0.857422
554139.0,1.761719,7.730469,4.171875,-0.011719,-0.6875,-0.113281,-0.052734,0.644531,1.091797
554157.0,1.722656,7.839844,4.058594,0.019531,-0.585938,-0.28125,-0.052734,0.662109,1.152344
554173.0,1.605469,8.148438,3.75,-0.347656,-0.078125,-0.773438,-0.128906,0.654297,1.195312
554190.0,1.914062,8.417969,3.789062,-0.347656,0.152344,-0.804688,-0.347656,0.466797,1.267578
554210.0,2.183594,8.113281,3.90625,-0.003906,0.160156,-0.757812,-0.501953,0.361328,1.269531
554230.0,2.335938,7.835938,4.289062,-0.089844,0.054688,-0.765625,-0.490234,0.21875,1.341797
554250.0,2.949219,7.1875,4.863281,0.203125,-0.433594,-0.179688,-0.306641,0.144531,1.457031
554270.0,2.984375,6.960938,4.863281,0.226562,-0.773438,0.035156,-0.125,0.160156,1.591797
554291.0,3.40625,7.613281,5.167969,0.269531,-0.328125,0.125,-0.007812,0.195312,1.621094
554303.0,3.445312,7.835938,5.207031,0.226562,0.269531,0.300781,-0.013672,0.167969,1.601562
554330.0,3.675781,7.878906,5.207031,0.316406,0.496094,0.4375,-0.34375,0.138672,1.527344
554354.0,3.292969,7.726562,4.824219,-0.457031,0.5,-0.214844,-0.753906,0.185547,1.533203
554370.0,3.179688,7.652344,5.09375,-0.679688,0.601562,-0.199219,-1.033203,0.060547,1.533203
554393.0,4.210938,7.0,5.476562,0.039062,0.226562,0.164062,-1.054688,-0.042969,1.507812
554410.0,4.558594,6.6875,5.167969,0.167969,0.160156,-0.03125,-1.244141,-0.109375,1.472656
554423.0,4.558594,6.6875,4.902344,0.082031,0.300781,-0.636719,-1.398438,-0.085938,1.482422
554450.0,3.90625,6.230469,4.441406,-0.765625,0.34375,-1.238281,-1.607422,-0.40625,1.408203
554470.0,4.367188,5.539062,4.632812,-0.710938,-0.0625,-1.265625,-1.53125,-0.716797,1.353516
554491.0,4.558594,5.390625,4.785156,-0.597656,0.019531,-1.214844,-1.416016,-0.738281,1.314453
554510.0,4.441406,5.351562,4.632812,-0.902344,0.296875,-1.367188,-1.363281,-0.90625,1.273438
554530.0,5.203125,5.121094,4.519531,-1.019531,0.375,-1.421875,-1.238281,-1.244141,1.232422
554561.0,6.667969,3.894531,5.015625,0.320312,-0.113281,-1.628906,-1.230469,-1.589844,1.210938
554601.0,5.664062,4.394531,5.628906,-1.101562,0.605469,-0.039062,-1.160156,-1.675781,1.347656
554616.0,6.324219,4.277344,5.167969,0.257812,0.648438,-0.921875,-1.164062,-1.732422,1.259766
554641.0,8.730469,4.011719,4.785156,0.929688,0.828125,-0.960938,-1.447266,-1.958984,1.050781
554655.0,8.542969,3.664062,5.015625,0.597656,0.515625,-0.097656,-1.619141,-1.929688,0.951172
554670.0,7.128906,3.128906,4.785156,-0.070312,0.496094,-0.140625,-1.734375,-1.957031,0.859375
554695.0,8.117188,2.476562,3.980469,0.230469,0.195312,-0.847656,-1.513672,-2.076172,0.734375
554713.0,9.0,2.515625,3.867188,0.992188,0.359375,-0.8125,-1.382812,-2.314453,0.605469
554735.0,8.964844,2.785156,4.210938,0.609375,0.949219,0.007812,-1.585938,-2.248047,0.359375
554751.0,8.042969,2.785156,4.058594,0.019531,1.082031,0.019531,-1.582031,-2.21875,0.123047
554774.0,9.121094,2.515625,3.714844,0.414062,0.976562,0.191406,-1.599609,-2.390625,0.042969
554793.0,9.265625,2.324219,3.636719,0.480469,0.847656,0.292969,-2.107422,-2.257812,0.173828
554812.0,9.386719,1.214844,3.253906,0.101562,0.152344,0.40625,-2.416016,-2.136719,0.242188
554831.0,10.070312,0.179688,3.253906,0.894531,-0.402344,0.496094,-2.080078,-1.902344,0.255859
554845.0,10.226562,-0.703125,3.484375,1.300781,-2.660156,1.300781,-1.810547,-1.779297,0.314453
554861.0,10.613281,-3.34375,4.097656,1.367188,-3.625,1.671875,-1.351562,-1.505859,0.623047
554878.0,11.074219,-3.957031,4.058594,1.367188,-4.195312,1.996094,-1.074219,-1.404297,0.791016
554902.0,11.183594,-3.460938,3.484375,1.886719,-4.445312,1.878906,0.242188,-0.925781,1.029297
554925.0,11.335938,-1.085938,2.257812,1.9375,-1.382812,0.742188,0.748047,-0.71875,1.058594
554942.0,11.605469,0.5625,1.605469,2.039062,-0.328125,0.460938,0.623047,-0.464844,0.953125
554965.0,10.71875,1.136719,1.875,1.285156,1.152344,0.539062,0.501953,-0.199219,0.59375
554982.0,10.414062,0.871094,2.410156,1.132812,0.941406,0.859375,0.486328,-0.078125,0.597656
554996.0,10.375,0.753906,2.5625,0.859375,1.003906,1.175781,0.535156,0.03125,0.542969
555011.0,10.035156,0.90625,1.988281,0.828125,1.082031,0.921875,0.527344,0.277344,0.318359
555036.0,9.808594,1.367188,1.492188,0.375,1.632812,0.0625,0.490234,0.525391,0.074219
555051.0,9.84375,1.519531,1.414062,0.34375,1.703125,-0.070312,0.394531,0.751953,-0.078125
555075.0,9.609375,1.445312,1.53125,0.222656,1.65625,-0.1875,0.191406,0.873047,-0.173828
555092.0,9.464844,1.40625,1.796875,0.085938,1.667969,-0.152344,0.029297,0.894531,-0.205078
555105.0,9.503906,1.328125,1.949219,0.148438,1.476562,-0.019531,-0.041016,0.880859,-0.205078
555146.0,10.070312,0.640625,1.914062,0.785156,0.734375,-0.367188,-0.328125,0.769531,-0.179688
555162.0,9.648438,0.292969,1.757812,0.644531,0.535156,-0.546875,-0.59375,0.710938,-0.167969
555185.0,9.304688,-0.664062,1.875,0.082031,-0.585938,-0.65625,-0.628906,0.554688,-0.226562
555202.0,9.148438,-1.351562,1.835938,0.019531,-1.015625,-0.75,-0.556641,0.425781,-0.306641
555226.0,8.925781,-1.390625,1.875,-0.269531,-1.375,-0.820312,-0.246094,0.326172,-0.306641
555242.0,8.847656,-1.085938,1.835938,-0.339844,-1.277344,-0.890625,-0.023438,0.3125,-0.257812
555263.0,8.808594,-0.511719,1.988281,-0.355469,-0.582031,-0.816406,0.037109,0.298828,-0.246094
555297.0,9.148438,-0.28125,2.335938,0.003906,-0.421875,-0.53125,0.068359,0.177734,-0.191406
555312.0,9.230469,-0.164062,2.410156,0.121094,-0.359375,-0.503906,-0.048828,0.050781,-0.111328
555335.0,9.078125,-0.316406,2.910156,-0.070312,-0.488281,0.027344,-0.103516,0.017578,-0.099609
555375.0,9.609375,-0.625,3.332031,0.457031,-0.78125,0.457031,-0.083984,-0.042969,0.044922
555386.0,9.609375,-0.625,3.292969,0.457031,-0.773438,0.417969,-0.039062,0.072266,0.105469
555416.0,9.265625,-0.355469,3.484375,0.128906,-0.441406,0.554688,-0.125,0.265625,0.240234
555432.0,9.304688,-0.472656,3.523438,0.136719,-0.457031,0.53125,-0.166016,0.376953,0.275391
555456.0,9.503906,-0.472656,3.484375,0.398438,-0.441406,0.421875,-0.154297,0.472656,0.291016
555473.0,9.535156,-0.28125,3.558594,0.488281,-0.332031,0.449219,-0.144531,0.679688,0.291016
555487.0,9.5,-0.125,3.558594,0.289062,0.152344,0.210938,-0.195312,0.769531,0.294922
555503.0,8.769531,0.21875,3.40625,0.015625,0.304688,0.101562,-0.330078,0.818359,0.253906
555524.0,8.464844,-0.050781,2.910156,-0.480469,0.214844,-0.597656,-0.439453,0.732422,0.236328
555566.0,8.621094,-0.703125,2.21875,-0.265625,-0.210938,-1.421875,-0.933594,0.216797,0.306641
555583.0,8.542969,-1.007812,2.257812,-0.34375,-0.261719,-1.398438,-0.888672,-0.015625,0.318359
555606.0,8.503906,-1.503906,2.21875,-0.371094,-0.777344,-1.40625,-0.644531,-0.164062,0.300781
555623.0,8.886719,-1.964844,1.988281,-0.1875,-0.960938,-1.496094,-0.427734,-0.408203,0.296875
555646.0,8.808594,-2.308594,2.21875,-0.121094,-1.410156,-1.25,-0.080078,-0.552734,0.28125
555663.0,8.65625,-2.117188,2.71875,-0.25,-1.386719,-0.886719,0.322266,-0.685547,0.261719
555678.0,8.765625,-1.8125,2.832031,0.09375,-0.597656,-0.550781,0.443359,-0.726562,0.216797
555716.0,9.34375,-0.316406,3.136719,0.28125,0.589844,0.050781,0.515625,-0.560547,-0.023438
555726.0,9.347656,-0.125,3.253906,0.265625,0.757812,0.207031,0.347656,-0.505859,-0.140625
555756.0,9.304688,-0.242188,3.332031,0.183594,0.59375,0.425781,0.058594,-0.482422,-0.175781
555788.0,9.570312,-0.703125,3.023438,0.554688,-0.019531,0.136719,-0.375,-0.398438,-0.03125
555825.0,9.691406,-1.964844,3.136719,0.488281,-1.089844,0.464844,-0.417969,-0.167969,0.011719
555867.0,9.882812,-1.8125,2.984375,0.679688,-0.890625,0.328125,0.212891,0.044922,0.095703
555883.0,9.609375,-1.503906,2.871094,0.601562,-0.738281,0.246094,0.314453,0.103516,0.099609
555907.0,9.230469,-1.390625,2.984375,0.035156,-0.453125,0.289062,0.298828,0.033203,0.154297
555923.0,9.382812,-1.46875,2.640625,0.148438,-0.484375,0.167969,0.179688,-0.015625,0.201172
555947.0,9.121094,-1.429688,2.449219,-0.070312,-0.429688,-0.261719,0.189453,0.115234,0.298828
555963.0,8.808594,-1.351562,2.679688,-0.179688,-0.28125,-0.199219,0.261719,0.185547,0.402344
555987.0,8.582031,-1.925781,2.984375,-0.570312,-0.808594,0.203125,0.294922,0.138672,0.400391
556004.0,8.65625,-1.925781,3.136719,-0.570312,-0.894531,0.304688,0.484375,0.033203,0.369141
556018.0,8.882812,-1.734375,2.871094,0.011719,-0.316406,-0.292969,0.597656,0.046875,0.357422
556033.0,9.34375,-1.3125,2.179688,0.175781,-0.226562,-0.570312,0.720703,0.150391,0.324219
556057.0,9.265625,-1.3125,2.871094,0.160156,-0.070312,-0.019531,0.697266,0.119141,0.328125
556073.0,9.304688,-1.277344,3.253906,0.167969,-0.09375,0.195312,0.691406,0.072266,0.361328
556097.0,9.570312,-1.085938,3.367188,0.488281,0.203125,0.414062,0.677734,0.056641,0.386719
556114.0,9.53125,-1.199219,3.367188,0.457031,0.191406,0.398438,0.582031,0.025391,0.373047
556154.0,9.148438,-1.542969,3.214844,0.367188,-0.09375,0.238281,0.583984,0.042969,0.304688
556168.0,9.003906,-1.582031,3.214844,-0.121094,-0.136719,0.183594,0.65625,0.050781,0.289062
556184.0,8.660156,-1.46875,2.945312,-0.269531,-0.089844,0.015625,0.8125,0.095703,0.279297
556207.0,8.726562,-1.199219,2.71875,-0.292969,0.207031,-0.390625,0.894531,0.105469,0.263672
556247.0,8.5,-0.816406,3.332031,-0.503906,0.582031,0.144531,0.783203,-0.025391,0.255859
556264.0,8.699219,-0.738281,3.367188,-0.421875,0.621094,0.179688,0.615234,-0.179688,0.232422
556287.0,8.726562,-0.855469,3.214844,-0.277344,0.550781,0.058594,0.382812,-0.277344,0.138672
556304.0,8.695312,-1.238281,3.214844,-0.367188,0.351562,0.003906,0.289062,-0.34375,0.068359
556319.0,8.726562,-1.390625,3.332031,-0.269531,-0.03125,0.320312,0.289062,-0.378906,0.048828
556344.0,8.769531,-1.429688,3.445312,-0.253906,-0.046875,0.429688,0.492188,-0.457031,0.017578
556359.0,8.84375,-1.3125,3.40625,-0.167969,0.3125,0.378906,0.574219,-0.472656,-0.005859
556374.0,9.265625,-0.472656,3.175781,-0.03125,0.566406,0.339844,0.644531,-0.455078,-0.097656
556398.0,9.269531,0.066406,3.332031,0.121094,1.324219,0.511719,0.478516,-0.402344,-0.1875
556414.0,8.882812,-0.050781,3.523438,-0.085938,1.253906,0.695312,0.240234,-0.376953,-0.171875
556437.0,8.808594,-0.125,3.523438,-0.386719,1.046875,0.828125,0.148438,-0.380859,-0.121094
556469.0,9.386719,-0.472656,3.367188,0.15625,0.675781,0.765625,-0.027344,-0.275391,-0.091797
556494.0,9.230469,-1.121094,3.714844,0.066406,0.15625,1.074219,0.095703,-0.095703,-0.083984
556514.0,9.117188,-1.160156,3.484375,-0.132812,-0.136719,1.089844,0.224609,-0.0625,-0.021484
556535.0,9.230469,-0.777344,3.101562,-0.105469,0.117188,0.828125,0.25,-0.054688,0.013672
556548.0,9.1875,-0.585938,3.023438,-0.140625,0.605469,0.40625,0.208984,-0.039062,0.013672
556565.0,9.042969,-0.511719,3.175781,-0.210938,0.636719,0.476562,0.121094,-0.033203,0.003906
556588.0,9.269531,-0.738281,3.40625,0.011719,0.324219,0.867188,0.097656,-0.050781,-0.003906
556605.0,9.609375,-0.703125,3.101562,0.203125,0.359375,0.761719,0.076172,-0.041016,0.003906
556645.0,9.347656,-0.816406,3.175781,0.117188,0.308594,0.5,-0.005859,-0.080078,-0.037109
556665.0,9.269531,-0.816406,3.136719,0.042969,0.144531,0.613281,0.003906,-0.083984,-0.052734
556685.0,9.269531,-0.703125,2.984375,-0.003906,0.253906,0.515625,-0.015625,-0.039062,-0.066406
556699.0,9.191406,-0.703125,2.910156,-0.203125,0.3125,0.363281,-0.042969,-0.013672,-0.078125
556715.0,8.882812,-0.816406,2.945312,-0.355469,0.230469,0.4375,-0.054688,-0.023438,-0.111328
556738.0,9.304688,-0.738281,2.71875,0.027344,0.238281,0.21875,-0.046875,-0.029297,-0.132812
556755.0,9.304688,-0.625,2.5625,0.0625,0.289062,0.09375,-0.052734,-0.035156,-0.201172
556778.0,9.34375,-0.738281,2.679688,0.054688,0.167969,0.1875,-0.056641,-0.044922,-0.226562
556795.0,9.265625,-0.738281,2.753906,0.046875,0.097656,0.269531,-0.080078,-0.099609,-0.25
556819.0,9.117188,-0.625,2.640625,-0.1875,0.1875,0.179688,-0.058594,-0.111328,-0.285156
556835.0,9.191406,-0.511719,2.449219,-0.160156,0.195312,0.074219,-0.060547,-0.066406,-0.310547
556849.0,9.304688,-0.394531,2.371094,0.101562,0.410156,-0.074219,-0.072266,-0.044922,-0.322266
556889.0,9.386719,0.027344,2.601562,0.046875,0.628906,0.164062,-0.226562,-0.003906,-0.333984
556906.0,9.265625,-0.164062,2.527344,0.007812,0.480469,0.125,-0.353516,0.027344,-0.339844
556929.0,9.042969,-0.625,2.410156,-0.289062,-0.117188,-0.035156,-0.402344,0.046875,-0.347656
556945.0,9.003906,-0.894531,2.335938,-0.375,-0.300781,-0.082031,-0.402344,0.09375,-0.367188
556968.0,9.117188,-0.894531,2.179688,-0.21875,-0.488281,-0.296875,-0.363281,0.099609,-0.365234
556999.0,9.1875,-0.664062,2.449219,-0.136719,-0.34375,-0.050781,-0.246094,0.082031,-0.359375
557015.0,9.652344,-0.472656,2.371094,0.09375,-0.257812,-0.019531,-0.226562,0.052734,-0.328125
557038.0,9.726562,-0.355469,2.335938,0.40625,-0.136719,-0.1875,-0.248047,0.042969,-0.335938
557056.0,9.425781,-0.511719,2.488281,0.285156,-0.199219,-0.113281,-0.375,0.001953,-0.320312
557079.0,8.964844,-0.625,2.601562,-0.367188,-0.492188,0.070312,-0.371094,0.001953,-0.283203
557095.0,9.082031,-0.546875,2.449219,-0.402344,-0.507812,0.03125,-0.224609,0.058594,-0.212891
557119.0,9.503906,-0.203125,1.988281,0.179688,-0.125,-0.566406,-0.183594,0.125,-0.197266
557135.0,9.613281,-0.203125,2.105469,0.292969,-0.101562,-0.574219,-0.238281,0.103516,-0.177734
557158.0,9.5,-0.355469,2.371094,0.1875,-0.316406,-0.214844,-0.273438,0.058594,-0.154297
557176.0,9.265625,-0.394531,2.335938,0.109375,-0.363281,-0.214844,-0.306641,-0.005859,-0.123047
557190.0,9.148438,-0.433594,2.335938,-0.1875,-0.449219,-0.328125,-0.316406,-0.013672,-0.128906
557206.0,9.148438,-0.433594,1.988281,-0.195312,-0.449219,-0.480469,-0.322266,0.025391,-0.125
557230.0,9.078125,-0.664062,1.722656,-0.226562,-0.648438,-0.878906,-0.302734,0.056641,-0.107422
557246.0,9.152344,-0.894531,1.796875,-0.226562,-0.761719,-0.886719,-0.162109,0.029297,-0.052734
557270.0,9.386719,-0.664062,1.875,0.078125,-0.648438,-0.734375,-0.021484,-0.005859,0.011719
557286.0,9.691406,-0.316406,1.796875,0.230469,-0.496094,-0.8125,0.027344,-0.064453,0.015625
557309.0,10.074219,-0.050781,1.875,0.769531,-0.035156,-0.710938,-0.082031,-0.097656,-0.001953
557326.0,9.914062,-0.203125,1.988281,0.722656,-0.066406,-0.664062,-0.113281,-0.150391,0.015625
557347.0,9.691406,-0.355469,2.105469,0.453125,-0.285156,-0.441406,-0.171875,-0.181641,0.044922
557366.0,9.804688,-0.394531,1.988281,0.398438,-0.300781,-0.410156,-0.148438,-0.136719,0.0625
557381.0,9.765625,-0.394531,1.914062,0.355469,-0.324219,-0.570312,-0.109375,-0.115234,0.0625
557397.0,9.648438,-0.394531,2.027344,0.355469,-0.308594,-0.527344,-0.027344,-0.111328,0.076172
557420.0,9.570312,-0.316406,2.144531,0.222656,-0.207031,-0.292969,-0.013672,-0.115234,0.117188
557436.0,9.503906,-0.242188,2.027344,0.183594,-0.117188,-0.316406,-0.041016,-0.101562,0.144531
557459.0,9.308594,-0.355469,1.914062,-0.050781,-0.183594,-0.476562,-0.064453,-0.095703,0.164062
557476.0,9.1875,-0.472656,1.875,-0.128906,-0.246094,-0.46875,-0.044922,-0.091797,0.171875
557500.0,9.382812,-0.546875,1.757812,0.015625,-0.304688,-0.59375,0.023438,-0.078125,0.183594
557516.0,9.808594,-0.28125,1.722656,0.207031,-0.175781,-0.585938,0.091797,-0.085938,0.160156
557531.0,9.992188,-0.164062,1.757812,0.46875,0.199219,-0.460938,0.111328,-0.085938,0.142578
557546.0,9.082031,-0.164062,2.257812,0.125,0.171875,-0.292969,0.064453,-0.152344,0.148438
557570.0,8.808594,-0.355469,2.144531,-0.582031,-0.011719,-0.121094,-0.103516,-0.205078,0.177734
557587.0,9.304688,-0.625,1.683594,-0.351562,-0.113281,-0.375,-0.15625,-0.072266,0.146484
557609.0,9.847656,-0.855469,1.605469,0.445312,-0.449219,-0.628906,-0.072266,-0.003906,0.097656
557627.0,9.765625,-0.703125,1.914062,0.445312,-0.417969,-0.511719,0.210938,-0.072266,-0.037109
557650.0,9.535156,-0.28125,2.105469,0.136719,0.109375,-0.097656,0.181641,-0.15625,0.015625
557667.0,9.503906,-0.164062,1.835938,0.136719,0.179688,-0.199219,0.146484,-0.134766,0.052734
557681.0,9.5,-0.089844,1.757812,0.128906,0.300781,-0.566406,0.125,-0.097656,0.056641
557697.0,9.570312,-0.050781,1.605469,0.121094,0.339844,-0.542969,0.083984,-0.037109,0.044922
557720.0,9.574219,-0.050781,1.757812,0.160156,0.347656,-0.382812,0.082031,-0.033203,0.035156
557737.0,9.570312,-0.011719,1.835938,0.160156,0.308594,-0.375,0.082031,-0.078125,0.027344
557761.0,9.847656,0.21875,1.644531,0.421875,0.625,-0.464844,-0.017578,-0.058594,0.023438
557782.0,9.609375,0.027344,1.757812,0.34375,0.546875,-0.417969,-0.109375,-0.052734,0.021484
557807.0,9.535156,-0.355469,1.757812,0.03125,0.105469,-0.25,-0.074219,-0.033203,0.003906
557832.0,9.574219,-0.242188,1.492188,0.144531,0.179688,-0.585938,-0.046875,-0.003906,-0.007812
557857.0,9.6875,-0.355469,1.683594,0.222656,0.140625,-0.457031,-0.166016,-0.029297,-0.046875
557872.0,9.6875,-0.511719,1.683594,0.253906,-0.28125,-0.296875,-0.171875,-0.039062,-0.056641
557911.0,9.6875,-0.855469,1.492188,0.246094,-0.457031,-0.539062,-0.033203,-0.044922,-0.091797
557927.0,9.53125,-0.777344,1.453125,0.207031,-0.378906,-0.570312,0.035156,-0.001953,-0.078125
557951.0,9.382812,-0.703125,1.605469,-0.0625,-0.328125,-0.417969,0.107422,0.0,-0.064453
557967.0,9.460938,-0.664062,1.566406,-0.023438,-0.335938,-0.378906,0.128906,-0.009766,-0.072266
557991.0,9.726562,-0.472656,1.300781,0.28125,-0.136719,-0.707031,0.119141,0.003906,-0.09375
558007.0,9.765625,-0.394531,1.414062,0.320312,-0.152344,-0.667969,0.113281,0.007812,-0.113281
558027.0,9.726562,-0.394531,1.722656,0.273438,-0.097656,-0.410156,0.15625,-0.027344,-0.113281
558048.0,9.726562,-0.355469,1.875,0.273438,-0.082031,-0.242188,0.160156,-0.052734,-0.117188
558078.0,9.574219,-0.28125,1.757812,0.191406,-0.046875,-0.226562,0.144531,-0.023438,-0.105469
558101.0,9.535156,-0.203125,1.796875,0.066406,0.0,-0.171875,0.167969,-0.001953,-0.087891
558117.0,9.574219,-0.089844,1.796875,0.105469,0.023438,-0.171875,0.138672,0.007812,-0.082031
558141.0,9.574219,0.027344,1.757812,0.105469,0.191406,-0.21875,0.0625,0.0,-0.078125
558158.0,9.5,-0.050781,1.796875,0.058594,0.136719,-0.171875,0.005859,-0.005859,-0.064453
558172.0,9.53125,-0.089844,1.796875,0.03125,0.015625,-0.164062,-0.003906,-0.007812,-0.056641
558188.0,9.460938,-0.203125,1.722656,-0.007812,-0.03125,-0.203125,-0.007812,-0.003906,-0.044922
558212.0,9.34375,-0.316406,1.644531,-0.132812,-0.199219,-0.308594,0.005859,0.001953,-0.052734
558228.0,9.304688,-0.355469,1.605469,-0.132812,-0.285156,-0.347656,0.052734,0.013672,-0.060547
558250.0,9.460938,-0.355469,1.644531,-0.007812,-0.261719,-0.308594,0.074219,0.013672,-0.068359
558291.0,9.5,-0.355469,1.835938,0.015625,-0.300781,-0.109375,0.074219,-0.037109,-0.072266
558308.0,9.535156,-0.546875,1.835938,0.023438,-0.417969,-0.0625,0.105469,-0.044922,-0.082031
558331.0,9.503906,-0.585938,1.683594,0.023438,-0.5625,-0.246094,0.183594,-0.005859,-0.082031
558348.0,9.425781,-0.355469,1.835938,-0.054688,-0.496094,-0.246094,0.28125,-0.015625,-0.078125
558362.0,9.464844,-0.242188,1.875,0.050781,-0.132812,-0.039062,0.271484,-0.021484,-0.076172
558378.0,9.648438,-0.089844,1.722656,0.167969,-0.113281,-0.117188,0.228516,-0.019531,-0.058594
558402.0,9.421875,-0.125,1.757812,-0.0625,-0.179688,-0.148438,0.212891,-0.035156,-0.048828
558419.0,9.503906,-0.125,1.757812,-0.023438,-0.226562,-0.140625,0.216797,-0.052734,-0.033203
558442.0,9.460938,-0.125,1.796875,-0.03125,-0.195312,-0.085938,0.230469,-0.041016,-0.017578
558458.0,9.425781,-0.164062,1.796875,-0.078125,-0.203125,-0.078125,0.244141,-0.048828,-0.011719
558481.0,9.464844,-0.125,1.683594,-0.039062,-0.226562,-0.175781,0.251953,-0.050781,-0.013672
558513.0,9.425781,-0.089844,1.757812,-0.078125,-0.207031,-0.085938,0.294922,-0.056641,-0.005859
558538.0,9.503906,0.066406,1.722656,-0.085938,-0.097656,-0.03125,0.291016,-0.068359,0.013672
558553.0,9.535156,0.066406,1.683594,0.074219,-0.058594,-0.128906,0.277344,-0.060547,0.003906
558569.0,9.5,-0.011719,1.644531,0.027344,-0.105469,-0.152344,0.277344,-0.046875,-0.007812
558591.0,9.347656,-0.050781,1.757812,-0.171875,-0.199219,-0.023438,0.283203,-0.046875,-0.007812
558631.0,9.535156,0.101562,1.566406,0.019531,-0.0625,-0.199219,0.273438,-0.017578,-0.005859
558672.0,9.421875,0.066406,1.796875,-0.09375,-0.113281,0.039062,0.238281,-0.03125,0.021484
558689.0,9.425781,0.066406,1.757812,-0.132812,-0.105469,0.085938,0.230469,-0.037109,0.029297
558703.0,9.464844,0.101562,1.757812,-0.054688,-0.113281,0.015625,0.234375,-0.033203,0.017578
558718.0,9.535156,0.179688,1.757812,0.058594,-0.039062,0.023438,0.228516,-0.029297,0.005859
558743.0,9.460938,0.140625,1.835938,-0.0625,-0.054688,0.117188,0.212891,-0.035156,-0.005859
558758.0,9.382812,0.179688,1.835938,-0.140625,-0.101562,0.15625,0.234375,-0.027344,-0.021484
558782.0,9.421875,0.5625,1.835938,-0.101562,0.351562,0.132812,0.244141,-0.009766,-0.048828
558798.0,9.269531,0.640625,2.027344,-0.214844,0.414062,0.210938,0.208984,-0.068359,-0.089844
558823.0,9.53125,0.753906,1.757812,0.011719,0.488281,0.078125,0.087891,-0.080078,-0.179688
558839.0,9.535156,0.714844,1.605469,0.042969,0.472656,-0.027344,-0.064453,0.001953,-0.253906
558854.0,9.460938,0.5625,1.566406,-0.140625,0.121094,-0.066406,-0.052734,0.021484,-0.291016
558893.0,9.382812,-0.011719,1.757812,-0.171875,-0.519531,0.125,0.136719,0.029297,-0.421875
558909.0,9.386719,0.027344,1.757812,-0.132812,-0.558594,0.078125,0.318359,0.0625,-0.433594
558932.0,9.652344,0.484375,1.835938,0.152344,-0.164062,0.148438,0.435547,0.074219,-0.427734
558949.0,9.6875,0.640625,1.835938,0.113281,-0.101562,0.179688,0.580078,0.148438,-0.435547
558973.0,9.914062,0.753906,1.875,0.433594,-0.105469,0.148438,0.580078,0.146484,-0.474609
558989.0,10.074219,0.714844,1.644531,0.519531,-0.160156,0.0625,0.582031,0.123047,-0.498047
559013.0,9.804688,0.984375,1.566406,0.351562,-0.09375,-0.183594,0.623047,0.123047,-0.451172
559043.0,9.5,1.75,1.875,0.070312,0.546875,0.109375,0.607422,0.140625,-0.294922
559060.0,9.386719,1.980469,1.988281,0.03125,0.628906,0.175781,0.392578,0.148438,-0.095703
559082.0,9.304688,2.058594,2.066406,-0.105469,0.785156,0.261719,0.294922,0.152344,-0.048828
559099.0,9.269531,1.902344,2.027344,-0.078125,0.714844,0.246094,-0.089844,0.222656,0.164062
559122.0,8.769531,1.75,1.988281,-0.644531,0.554688,0.097656,-0.210938,0.255859,0.242188
559139.0,8.582031,1.445312,2.257812,-0.757812,0.480469,0.230469,-0.271484,0.236328,0.433594
559163.0,8.921875,1.097656,2.410156,-0.488281,0.074219,0.425781,-0.283203,0.173828,0.457031
559179.0,9.535156,1.40625,2.335938,-0.144531,0.238281,0.363281,-0.283203,0.173828,0.462891
559203.0,9.957031,1.863281,2.335938,0.542969,1.042969,0.273438,-0.427734,0.138672,0.488281
559220.0,9.808594,1.597656,2.179688,0.542969,1.023438,0.179688,-0.5625,0.039062,0.433594
559234.0,9.53125,1.214844,2.21875,-0.113281,0.128906,0.125,-0.587891,-0.005859,0.380859
559249.0,9.121094,0.027344,2.21875,-0.230469,-0.277344,0.164062,-0.53125,-0.095703,0.294922
559273.0,9.503906,0.140625,2.179688,0.0625,-0.367188,0.109375,-0.300781,-0.152344,0.246094
559290.0,9.613281,0.640625,2.144531,0.136719,-0.035156,0.042969,-0.164062,-0.15625,0.242188
559313.0,9.304688,0.792969,2.257812,-0.144531,0.394531,0.242188,-0.210938,-0.195312,0.240234
559330.0,9.117188,0.523438,2.257812,-0.269531,0.265625,0.265625,-0.367188,-0.246094,0.240234
559353.0,9.308594,0.101562,2.105469,-0.167969,-0.179688,0.167969,-0.365234,-0.208984,0.261719
559370.0,9.265625,0.101562,1.988281,-0.207031,-0.183594,0.113281,-0.251953,-0.111328,0.244141
559384.0,9.308594,0.179688,2.027344,-0.140625,0.023438,0.246094,-0.257812,-0.085938,0.230469
559401.0,9.34375,0.140625,2.257812,-0.175781,0.015625,0.328125,-0.386719,-0.066406,0.246094
559423.0,9.425781,-0.203125,2.105469,-0.070312,-0.28125,0.230469,-0.445312,-0.052734,0.261719
559433.0,9.5,-0.28125,1.949219,0.007812,-0.320312,0.074219,-0.472656,-0.003906,0.263672
559452.0,9.460938,-0.433594,1.722656,-0.03125,-0.410156,-0.160156,-0.449219,0.035156,0.259766
559470.0,9.347656,-0.472656,1.722656,-0.109375,-0.464844,-0.167969,-0.333984,0.085938,0.236328
559503.0,9.503906,-0.585938,1.683594,0.015625,-0.421875,-0.222656,-0.294922,0.021484,0.21875
559535.0,9.5,-1.046875,1.53125,0.015625,-0.8125,-0.367188,-0.203125,-0.074219,0.199219
559560.0,9.265625,-1.3125,1.53125,-0.175781,-1.03125,-0.316406,0.171875,-0.167969,0.228516
559575.0,9.308594,-1.238281,1.566406,-0.148438,-0.734375,-0.246094,0.308594,-0.189453,0.214844
559613.0,9.6875,0.140625,2.027344,0.191406,0.476562,0.246094,0.652344,-0.169922,0.091797
559625.0,9.613281,0.332031,2.179688,0.113281,0.652344,0.40625,0.708984,-0.083984,0.005859
559654.0,9.5,1.023438,2.488281,0.0,1.304688,0.714844,0.523438,-0.007812,-0.048828
559671.0,9.652344,1.175781,2.410156,0.074219,1.402344,0.675781,0.210938,0.009766,-0.035156
559694.0,9.808594,0.792969,2.179688,0.304688,1.042969,0.398438,-0.083984,0.056641,0.0
559711.0,9.804688,0.21875,2.144531,0.304688,0.773438,0.390625,-0.185547,0.078125,0.017578
559731.0,9.648438,-0.394531,2.027344,0.191406,0.015625,0.300781,-0.117188,0.078125,-0.003906
559751.0,9.460938,-0.472656,1.914062,0.035156,-0.167969,0.128906,0.013672,0.097656,-0.023438
559771.0,9.386719,-0.28125,1.757812,-0.03125,-0.097656,-0.085938,0.097656,0.140625,-0.027344
559811.0,9.308594,-0.203125,1.949219,-0.167969,0.0,0.050781,0.193359,0.136719,0.003906
559836.0,9.425781,-0.089844,1.914062,-0.046875,0.136719,-0.03125,0.125,0.164062,0.001953
559861.0,9.265625,-0.203125,2.027344,-0.160156,0.0625,-0.035156,0.099609,0.150391,0.007812
559884.0,9.421875,-0.28125,2.257812,-0.039062,-0.054688,0.234375,0.083984,0.109375,-0.009766
559901.0,9.882812,-0.242188,2.066406,0.160156,-0.023438,0.148438,0.089844,0.076172,-0.005859
559915.0,10.03125,-0.242188,1.914062,0.582031,-0.03125,-0.171875,0.080078,0.089844,-0.001953
559931.0,9.914062,-0.394531,2.027344,0.542969,-0.070312,-0.179688,0.128906,0.087891,0.021484
559955.0,9.652344,-0.472656,2.488281,0.207031,-0.261719,0.410156,0.193359,0.013672,0.060547
559971.0,9.5,-0.316406,2.488281,0.167969,-0.175781,0.410156,0.210938,-0.005859,0.068359
559995.0,9.382812,-0.125,2.296875,-0.0625,0.09375,0.21875,0.195312,0.019531,0.080078
560011.0,9.308594,-0.011719,2.21875,-0.101562,0.167969,0.132812,0.160156,0.085938,0.105469
560034.0,9.304688,-0.011719,2.179688,-0.128906,0.230469,0.0625,0.136719,0.103516,0.123047
560052.0,9.464844,-0.011719,2.179688,-0.054688,0.238281,0.019531,0.101562,0.068359,0.126953
560066.0,9.425781,-0.011719,2.144531,-0.054688,0.183594,0.046875,0.082031,0.052734,0.121094
560104.0,9.308594,-0.203125,2.296875,-0.113281,0.101562,0.148438,0.091797,-0.001953,0.089844
560145.0,9.1875,-0.011719,2.335938,-0.238281,0.300781,0.171875,0.121094,0.044922,0.03125
560161.0,9.1875,0.066406,2.410156,-0.238281,0.300781,0.207031,0.109375,0.029297,0.021484
560185.0,9.308594,0.21875,2.449219,-0.113281,0.53125,0.277344,0.048828,0.017578,0.007812
560202.0,9.34375,0.179688,2.410156,-0.078125,0.484375,0.269531,-0.027344,0.019531,0.003906
560216.0,9.382812,0.140625,2.410156,-0.039062,0.371094,0.230469,-0.056641,0.021484,0.003906
560256.0,9.386719,-0.242188,2.410156,-0.039062,0.0625,0.214844,-0.095703,0.042969,-0.019531
560272.0,9.347656,-0.242188,2.335938,-0.078125,0.0625,0.132812,-0.078125,0.050781,-0.037109
560295.0,9.304688,-0.316406,2.296875,-0.113281,-0.011719,0.085938,-0.046875,0.054688,-0.035156
560312.0,9.34375,-0.316406,2.257812,-0.105469,-0.011719,0.078125,-0.017578,0.066406,-0.056641
560335.0,9.308594,-0.316406,2.257812,-0.097656,-0.027344,0.015625,-0.013672,0.080078,-0.0625
560352.0,9.265625,-0.28125,2.257812,-0.136719,-0.035156,0.007812,0.046875,0.058594,-0.044922
560375.0,9.347656,-0.203125,2.335938,-0.0625,0.054688,0.0625,0.011719,0.052734,-0.050781
560406.0,9.421875,-0.394531,2.257812,0.023438,-0.144531,-0.03125,-0.003906,0.054688,-0.042969
560423.0,9.503906,-0.472656,2.296875,0.0625,-0.191406,-0.03125,0.033203,0.050781,-0.035156
560446.0,9.503906,-0.433594,2.410156,0.109375,-0.207031,0.105469,0.076172,0.041016,-0.03125
560462.0,9.503906,-0.433594,2.410156,0.144531,-0.214844,0.105469,0.09375,0.041016,-0.029297
560485.0,9.382812,-0.546875,2.527344,-0.007812,-0.335938,0.207031,0.09375,0.042969,-0.019531
560502.0,9.34375,-0.472656,2.5625,-0.007812,-0.34375,0.234375,0.140625,0.042969,0.025391
560525.0,9.386719,-0.316406,2.449219,-0.007812,-0.121094,0.105469,0.154297,0.042969,0.037109
560542.0,9.386719,-0.355469,2.449219,0.0,-0.113281,0.136719,0.148438,0.03125,0.068359
560557.0,9.308594,-0.316406,2.410156,-0.191406,-0.144531,0.089844,0.146484,0.029297,0.076172
560573.0,9.152344,-0.394531,2.449219,-0.191406,-0.175781,0.082031,0.148438,0.03125,0.085938
560596.0,9.078125,-0.316406,2.335938,-0.304688,-0.089844,-0.039062,0.154297,0.029297,0.089844
560612.0,9.042969,-0.28125,2.371094,-0.304688,-0.082031,-0.039062,0.154297,0.03125,0.09375
560636.0,8.960938,-0.316406,2.410156,-0.414062,-0.066406,0.027344,0.171875,0.003906,0.089844
560653.0,9.039062,-0.316406,2.371094,-0.414062,-0.03125,-0.011719,0.197266,-0.027344,0.087891
560676.0,9.265625,-0.242188,2.257812,-0.105469,0.023438,-0.117188,0.203125,-0.033203,0.097656
560693.0,9.347656,-0.203125,2.335938,-0.066406,0.070312,-0.078125,0.224609,-0.046875,0.091797
560716.0,9.609375,-0.125,2.410156,0.238281,0.15625,0.042969,0.226562,-0.058594,0.087891
560733.0,9.847656,-0.050781,2.371094,0.390625,0.230469,0.050781,0.181641,-0.078125,0.076172
560747.0,9.84375,0.027344,2.296875,0.421875,0.277344,-0.054688,0.140625,-0.076172,0.068359
560763.0,9.648438,-0.089844,2.296875,0.34375,0.246094,-0.007812,0.046875,-0.09375,0.050781
560787.0,9.464844,-0.433594,2.335938,0.078125,-0.128906,0.015625,0.042969,-0.085938,0.041016
560802.0,9.34375,-0.511719,2.21875,0.03125,-0.167969,-0.007812,0.130859,-0.076172,0.044922
560825.0,9.1875,-0.316406,2.027344,-0.207031,-0.019531,-0.269531,0.166016,-0.044922,0.017578
560842.0,9.082031,-0.164062,1.988281,-0.28125,0.054688,-0.230469,0.236328,-0.011719,-0.003906
560866.0,9.117188,0.066406,2.027344,-0.28125,0.339844,-0.269531,0.222656,-0.003906,-0.009766
560883.0,9.152344,0.21875,2.066406,-0.273438,0.40625,-0.191406,0.136719,0.009766,-0.029297
560903.0,9.308594,0.257812,2.179688,-0.160156,0.507812,-0.191406,0.033203,-0.003906,-0.037109
560923.0,9.464844,0.21875,2.257812,0.03125,0.460938,-0.078125,-0.03125,-0.021484,-0.050781
560943.0,9.574219,0.066406,2.449219,0.183594,0.300781,0.082031,-0.068359,-0.019531,-0.060547
560963.0,9.613281,-0.089844,2.488281,0.214844,0.175781,0.160156,-0.105469,-0.027344,-0.064453
560983.0,9.691406,-0.242188,2.371094,0.253906,0.054688,0.089844,-0.142578,-0.029297,-0.066406
561003.0,9.613281,-0.316406,2.335938,0.292969,-0.023438,0.089844,-0.117188,-0.019531,-0.058594
561024.0,9.460938,-0.394531,2.449219,0.136719,-0.222656,0.136719,-0.046875,-0.029297,-0.035156
561056.0,9.5,-0.203125,2.296875,0.09375,0.0,0.039062,-0.005859,-0.019531,-0.019531
561073.0,9.347656,-0.164062,2.257812,0.015625,0.039062,0.0,-0.003906,0.0,-0.017578
561088.0,9.347656,-0.164062,2.21875,-0.054688,0.078125,-0.046875,0.007812,0.003906,-0.021484
561103.0,9.34375,-0.011719,2.144531,-0.089844,0.105469,-0.085938,0.005859,-0.001953,-0.023438
561127.0,9.347656,0.101562,2.144531,-0.054688,0.289062,-0.121094,-0.023438,0.001953,-0.025391
561143.0,9.304688,0.027344,2.21875,-0.054688,0.28125,-0.085938,-0.060547,0.011719,-0.029297
561167.0,9.347656,-0.050781,2.335938,-0.054688,0.128906,0.0625,-0.091797,0.003906,-0.023438
561184.0,9.460938,-0.089844,2.257812,-0.015625,0.128906,0.023438,-0.103516,0.007812,-0.017578
561206.0,9.609375,-0.203125,2.21875,0.214844,-0.023438,-0.054688,-0.115234,0.013672,-0.009766
