Time,ax,ay,az,lax,lay,laz,gx,gy,gz
408626.0,9.21875,-2.84375,-1.457031,-0.082031,-0.046875,0.066406,-0.123047,-0.318359,0.058594
408643.0,9.644531,-2.804688,-1.609375,0.144531,0.039062,-0.015625,-0.136719,-0.324219,0.056641
408665.0,9.101562,-2.882812,-1.570312,-0.175781,-0.070312,0.085938,-0.146484,-0.324219,0.050781
408706.0,9.296875,-2.230469,-1.570312,0.039062,0.589844,0.21875,-0.201172,-0.347656,0.070312
408723.0,9.296875,-2.882812,-1.609375,0.046875,0.292969,0.226562,-0.123047,-0.388672,0.070312
408738.0,9.296875,-3.074219,-1.570312,-0.011719,-0.121094,0.21875,-0.095703,-0.384766,0.080078
408752.0,9.414062,-2.382812,-1.917969,0.03125,0.222656,0.105469,-0.152344,-0.388672,0.091797
408793.0,9.183594,-3.109375,-2.03125,-0.074219,-0.480469,0.085938,-0.140625,-0.394531,0.080078
408816.0,9.414062,-2.574219,-1.992188,0.265625,0.300781,0.234375,-0.152344,-0.390625,0.080078
408832.0,9.414062,-2.84375,-2.222656,0.195312,0.03125,0.289062,-0.197266,-0.423828,0.103516
408855.0,9.449219,-2.5,-2.144531,0.347656,0.390625,0.261719,-0.244141,-0.417969,0.109375
408888.0,9.222656,-2.957031,-2.335938,0.167969,-0.058594,0.226562,-0.388672,-0.4375,0.126953
408912.0,9.300781,-3.148438,-2.683594,0.191406,-0.21875,0.097656,-0.373047,-0.457031,0.117188
408932.0,9.414062,-3.265625,-2.914062,0.527344,-0.257812,0.0,-0.378906,-0.439453,0.097656
408953.0,9.527344,-3.148438,-2.757812,0.445312,-0.335938,0.0625,-0.443359,-0.421875,0.103516
408967.0,9.523438,-2.882812,-2.71875,0.398438,0.382812,0.164062,-0.478516,-0.417969,0.091797
409007.0,9.644531,-3.609375,-1.992188,0.765625,-0.765625,1.1875,-0.363281,-0.539062,0.027344
409023.0,10.101562,-3.761719,-1.457031,0.9375,-0.820312,1.585938,-0.298828,-0.636719,0.019531
409045.0,10.101562,-2.421875,-1.304688,1.304688,0.390625,2.132812,-0.376953,-0.726562,0.044922
409086.0,10.105469,-2.078125,-1.609375,1.4375,0.703125,2.164062,-0.447266,-0.916016,0.154297
409104.0,10.328125,-1.539062,-1.800781,1.585938,1.085938,2.019531,-0.496094,-0.964844,0.240234
409123.0,9.984375,-0.964844,-2.222656,1.632812,1.585938,1.785156,-0.638672,-1.039062,0.320312
409142.0,9.566406,-1.082031,-2.566406,1.488281,1.816406,1.933594,-0.775391,-1.083984,0.398438
409162.0,9.140625,-1.234375,-3.488281,0.921875,1.546875,1.144531,-0.900391,-1.085938,0.449219
409183.0,9.0625,-1.386719,-3.945312,0.863281,1.546875,1.089844,-1.046875,-1.09375,0.458984
409203.0,8.917969,-1.769531,-4.445312,0.859375,1.238281,0.898438,-1.216797,-1.095703,0.488281
409220.0,8.835938,-1.578125,-5.058594,0.890625,0.957031,0.59375,-1.306641,-1.09375,0.501953
409235.0,8.917969,-0.964844,-5.210938,1.164062,2.1875,0.1875,-1.414062,-1.085938,0.507812
409275.0,8.03125,-0.890625,-5.402344,0.472656,1.429688,0.503906,-2.339844,-0.943359,0.525391
409304.0,7.269531,-3.148438,-7.085938,-0.101562,-1.148438,-0.828125,-2.34375,-0.912109,0.509766
409346.0,6.464844,-3.992188,-8.433594,-0.675781,-2.359375,-1.8125,-1.503906,-0.751953,0.4375
409362.0,5.851562,-3.265625,-8.695312,-0.890625,-2.007812,-1.734375,-1.416016,-0.498047,0.490234
409386.0,5.660156,-1.308594,-6.585938,-1.308594,0.089844,0.269531,-1.125,-0.466797,0.515625
409403.0,5.851562,-0.773438,-4.941406,-1.132812,0.46875,1.34375,-1.152344,-0.023438,0.443359
409417.0,5.503906,-1.273438,-4.941406,-1.652344,-0.550781,1.949219,-1.263672,0.351562,0.423828
409442.0,5.738281,-1.117188,-4.445312,-1.273438,0.007812,2.261719,-0.939453,1.105469,0.404297
409472.0,5.046875,-1.15625,-5.289062,-2.289062,-0.59375,1.101562,-0.828125,1.744141,0.283203
409495.0,5.542969,-0.621094,-5.09375,-2.066406,0.332031,1.125,-0.826172,1.951172,0.228516
409505.0,5.699219,-0.429688,-5.289062,-2.054688,0.484375,0.757812,-0.761719,2.292969,0.121094
409535.0,7.074219,-0.046875,-5.824219,-1.097656,0.78125,-0.363281,-0.523438,2.595703,-0.003906
409554.0,7.730469,0.144531,-5.9375,-0.601562,0.941406,-0.71875,-0.255859,3.015625,-0.019531
409576.0,8.148438,-2.804688,-11.796875,-0.609375,-2.046875,-7.347656,-0.292969,3.007812,0.083984
409622.0,7.613281,1.292969,-9.578125,-0.671875,2.175781,-6.050781,-0.498047,1.238281,0.390625
409645.0,8.570312,2.902344,-7.394531,-0.648438,3.730469,-4.042969,-1.507812,0.679688,0.517578
409684.0,9.335938,1.21875,-4.0625,0.109375,2.0,-0.71875,-2.060547,0.001953,0.583984
409694.0,9.445312,0.949219,-3.105469,0.222656,1.699219,0.253906,-1.988281,0.027344,0.457031
409723.0,9.03125,-1.847656,-4.101562,-0.1875,-1.152344,-0.726562,-1.673828,0.160156,0.464844
409765.0,9.183594,0.414062,-3.601562,-0.011719,1.101562,-0.15625,-0.787109,-0.240234,0.208984
409805.0,8.492188,-0.507812,-3.601562,-0.6875,0.132812,-0.101562,-0.683594,-0.095703,0.144531
409822.0,8.800781,-0.773438,-3.679688,-0.871094,-0.148438,-0.953125,-0.556641,0.03125,0.021484
409837.0,8.609375,-1.386719,-4.636719,-0.671875,-0.761719,-1.503906,-0.341797,-0.087891,-0.027344
409862.0,8.957031,-1.386719,-4.75,-0.117188,-0.625,-1.195312,0.240234,-0.166016,-0.15625
409881.0,8.800781,-0.851562,-4.636719,-0.410156,-0.328125,-1.164062,0.40625,-0.074219,-0.226562
409902.0,8.992188,-0.699219,-4.40625,-0.332031,-0.304688,-0.996094,0.523438,-0.021484,-0.248047
409922.0,9.179688,-0.160156,-4.175781,-0.101562,0.179688,-0.605469,0.470703,0.099609,-0.234375
409955.0,9.222656,0.566406,-3.714844,0.074219,1.074219,-0.097656,0.253906,0.095703,-0.162109
409972.0,9.414062,0.296875,-3.679688,0.109375,1.066406,-0.105469,0.083984,0.03125,-0.109375
409992.0,9.339844,0.070312,-3.488281,0.300781,0.554688,0.113281,-0.095703,0.007812,-0.056641
410012.0,9.300781,0.03125,-3.410156,0.1875,0.539062,0.160156,-0.234375,0.011719,-0.017578
410032.0,9.0625,-0.507812,-3.601562,0.035156,0.046875,0.128906,-0.248047,0.03125,-0.001953
410052.0,8.953125,-0.507812,-3.792969,-0.15625,-0.207031,-0.089844,-0.111328,0.046875,-0.001953
410071.0,9.144531,0.03125,-3.601562,-0.234375,0.246094,-0.175781,-0.054688,0.070312,-0.025391
410102.0,9.101562,-0.351562,-3.714844,-0.089844,0.222656,-0.199219,0.0,-0.011719,-0.035156
410122.0,9.03125,-0.507812,-3.792969,-0.058594,0.023438,-0.113281,0.011719,0.029297,-0.046875
410137.0,9.183594,-0.542969,-3.753906,0.027344,-0.140625,0.0,0.058594,-0.021484,-0.044922
410152.0,9.179688,-0.46875,-3.523438,0.066406,-0.101562,0.0,0.035156,0.011719,-0.037109
410175.0,9.144531,-0.582031,-3.488281,-0.011719,-0.230469,0.113281,0.009766,0.03125,-0.027344
410185.0,9.066406,-0.582031,-3.449219,-0.097656,-0.230469,0.144531,-0.015625,0.060547,-0.025391
410201.0,9.03125,-0.542969,-3.488281,-0.132812,-0.199219,0.152344,-0.039062,0.087891,-0.023438
410222.0,9.140625,-0.351562,-3.523438,-0.058594,-0.054688,0.089844,-0.044922,0.072266,-0.019531
410241.0,9.144531,-0.238281,-3.488281,-0.027344,-0.023438,0.046875,-0.050781,0.017578,-0.023438
410262.0,9.105469,-0.316406,-3.601562,-0.066406,0.074219,-0.03125,-0.044922,-0.044922,-0.027344
410294.0,9.105469,-0.316406,-3.601562,-0.050781,-0.019531,0.0,-0.019531,-0.070312,-0.033203
410311.0,9.105469,-0.390625,-3.753906,-0.050781,-0.054688,-0.070312,0.009766,-0.058594,-0.039062
410326.0,9.105469,-0.351562,-3.640625,-0.082031,-0.035156,-0.015625,0.015625,-0.050781,-0.037109
410341.0,9.101562,-0.238281,-3.5625,-0.082031,0.042969,0.023438,0.001953,-0.056641,-0.035156
410366.0,9.035156,-0.277344,-3.523438,-0.117188,-0.019531,0.117188,-0.054688,-0.005859,-0.039062
410381.0,9.144531,-0.390625,-3.679688,-0.042969,-0.132812,-0.039062,-0.017578,-0.066406,-0.037109
410405.0,9.21875,-0.199219,-3.640625,0.082031,0.042969,0.015625,-0.019531,-0.052734,-0.044922
410421.0,9.261719,-0.277344,-3.640625,0.164062,-0.003906,0.03125,-0.013672,-0.070312,-0.039062
410445.0,9.140625,-0.316406,-3.601562,0.011719,-0.097656,0.085938,-0.001953,-0.039062,-0.037109
410462.0,9.179688,-0.238281,-3.640625,0.019531,-0.050781,0.054688,0.025391,-0.044922,-0.042969
410484.0,9.105469,-0.238281,-3.640625,-0.011719,-0.027344,0.070312,0.027344,-0.041016,-0.039062
410502.0,9.101562,-0.277344,-3.714844,-0.011719,-0.113281,0.039062,0.046875,-0.066406,-0.042969
410516.0,9.101562,-0.238281,-3.832031,0.011719,0.191406,-0.214844,0.066406,-0.080078,-0.044922
410532.0,9.183594,0.144531,-3.714844,0.050781,0.296875,-0.167969,0.007812,-0.089844,-0.044922
410554.0,9.035156,-0.046875,-3.792969,-0.085938,0.234375,-0.175781,-0.025391,-0.09375,-0.039062
410565.0,8.992188,-0.121094,-3.792969,-0.125,0.144531,-0.160156,-0.060547,-0.085938,-0.025391
410582.0,8.917969,-0.199219,-3.832031,-0.195312,0.058594,-0.191406,-0.027344,-0.076172,-0.023438
410602.0,8.917969,-0.199219,-3.832031,-0.1875,0.042969,-0.160156,0.011719,-0.087891,-0.025391
410634.0,8.996094,-0.199219,-3.792969,-0.078125,0.027344,-0.074219,0.048828,-0.103516,-0.023438
410651.0,9.105469,-0.199219,-3.945312,-0.03125,0.019531,-0.210938,0.089844,-0.115234,-0.035156
410674.0,9.183594,0.03125,-3.871094,0.128906,0.242188,-0.097656,0.058594,-0.070312,-0.037109
410691.0,9.21875,0.03125,-3.792969,0.175781,0.195312,-0.042969,0.005859,-0.074219,-0.044922
410721.0,9.144531,-0.238281,-3.871094,0.066406,0.058594,-0.019531,-0.021484,-0.074219,-0.044922
410745.0,9.0625,-0.316406,-4.023438,0.027344,-0.160156,-0.179688,0.027344,-0.0625,-0.041016
410762.0,9.101562,-0.121094,-4.136719,-0.007812,-0.042969,-0.210938,0.09375,-0.056641,-0.044922
410782.0,8.953125,0.222656,-3.984375,-0.085938,0.363281,-0.101562,0.083984,-0.056641,-0.046875
410825.0,8.761719,-0.238281,-4.023438,-0.261719,-0.128906,-0.101562,-0.027344,-0.070312,-0.037109
410841.0,8.800781,-0.351562,-4.0625,-0.222656,-0.214844,-0.085938,0.023438,-0.070312,-0.039062
410856.0,8.835938,-0.351562,-4.0625,-0.207031,-0.214844,-0.101562,0.056641,-0.068359,-0.037109
410881.0,8.796875,-0.085938,-3.984375,-0.191406,-0.019531,-0.039062,0.033203,-0.078125,-0.025391
410901.0,8.839844,-0.238281,-3.984375,-0.175781,-0.019531,0.054688,-0.039062,-0.078125,-0.009766
410921.0,8.917969,-0.351562,-4.023438,-0.121094,-0.144531,0.023438,-0.037109,-0.064453,-0.009766
410942.0,9.03125,-0.316406,-4.023438,0.007812,-0.207031,0.039062,-0.085938,-0.041016,-0.011719
410974.0,9.066406,-0.085938,-4.175781,0.128906,0.03125,-0.128906,-0.070312,-0.021484,-0.009766
410991.0,9.105469,-0.046875,-4.136719,0.167969,0.0625,-0.089844,-0.111328,-0.009766,0.013672
411014.0,9.03125,-0.007812,-4.136719,0.09375,0.101562,-0.074219,-0.121094,0.0,0.027344
411045.0,8.875,0.070312,-4.023438,-0.078125,0.171875,0.039062,-0.142578,0.019531,0.0625
411060.0,8.875,-0.007812,-4.136719,-0.078125,0.132812,0.0,-0.154297,0.023438,0.074219
411083.0,9.035156,0.105469,-4.214844,0.078125,0.207031,-0.160156,-0.130859,0.019531,0.076172
411124.0,8.992188,0.488281,-3.945312,0.039062,0.597656,0.109375,-0.193359,0.007812,0.068359
411141.0,9.03125,0.144531,-4.0625,0.078125,0.40625,0.070312,-0.203125,0.011719,0.066406
411164.0,8.914062,-0.007812,-4.214844,-0.046875,0.09375,-0.167969,-0.109375,0.017578,0.058594
411181.0,9.035156,0.105469,-4.214844,0.03125,0.09375,-0.128906,0.0,0.003906,0.042969
411204.0,8.914062,0.375,-4.136719,-0.046875,0.484375,-0.089844,0.001953,-0.017578,0.023438
411221.0,8.917969,0.222656,-4.101562,-0.046875,0.40625,-0.089844,-0.021484,-0.025391,0.017578
411235.0,8.839844,0.105469,-4.101562,-0.152344,0.101562,0.0,-0.017578,-0.023438,0.009766
411251.0,8.917969,-0.199219,-4.136719,-0.121094,-0.011719,0.0,0.039062,-0.019531,-0.009766
411275.0,9.03125,-0.199219,-3.984375,0.070312,-0.082031,0.085938,0.107422,-0.013672,-0.029297
411291.0,9.035156,-0.121094,-3.90625,0.078125,-0.003906,0.164062,0.076172,-0.03125,-0.035156
411314.0,9.0625,-0.277344,-3.945312,0.113281,-0.160156,0.132812,0.074219,-0.029297,-0.03125
411330.0,9.105469,-0.160156,-3.90625,0.152344,-0.121094,0.132812,0.042969,-0.03125,-0.005859
411353.0,8.992188,-0.121094,-3.945312,0.039062,-0.003906,0.140625,0.003906,-0.029297,0.003906
411371.0,8.878906,-0.160156,-3.984375,0.007812,-0.042969,0.148438,-0.082031,-0.011719,0.041016
411385.0,8.878906,-0.160156,-4.023438,-0.105469,-0.035156,0.109375,-0.097656,-0.007812,0.046875
411401.0,8.761719,-0.160156,-4.023438,-0.152344,-0.003906,0.101562,-0.105469,-0.015625,0.052734
411423.0,8.722656,-0.199219,-4.0625,-0.222656,-0.082031,0.03125,-0.109375,-0.023438,0.054688
411433.0,8.683594,-0.238281,-4.101562,-0.261719,-0.121094,0.0,-0.109375,-0.037109,0.056641
411450.0,8.679688,-0.316406,-4.136719,-0.261719,-0.121094,-0.035156,-0.083984,-0.042969,0.066406
411470.0,8.679688,-0.390625,-4.253906,-0.253906,-0.273438,-0.097656,-0.027344,-0.046875,0.068359
411490.0,8.757812,-0.351562,-4.292969,-0.253906,-0.265625,-0.136719,0.007812,-0.044922,0.058594
411511.0,8.835938,-0.277344,-4.292969,-0.128906,-0.144531,-0.121094,0.003906,-0.042969,0.050781
411543.0,8.953125,-0.085938,-4.253906,0.03125,0.070312,-0.113281,-0.017578,-0.001953,0.037109
411574.0,8.992188,-0.160156,-4.214844,0.0625,-0.003906,-0.082031,-0.082031,0.019531,0.033203
411590.0,8.992188,-0.238281,-4.292969,0.0625,-0.042969,-0.121094,-0.085938,0.046875,0.03125
411621.0,8.992188,-0.085938,-4.136719,0.054688,-0.003906,-0.058594,-0.015625,0.050781,0.027344
411653.0,9.261719,0.453125,-3.984375,0.3125,0.609375,0.117188,0.001953,0.050781,0.015625
411670.0,9.296875,0.796875,-3.871094,0.390625,0.84375,0.148438,-0.09375,0.064453,0.009766
411694.0,9.375,0.414062,-3.753906,0.421875,0.5625,0.324219,-0.201172,0.052734,0.019531
411710.0,9.21875,-0.046875,-3.90625,0.34375,0.332031,0.324219,-0.167969,0.048828,0.003906
411725.0,9.179688,-0.121094,-4.023438,0.183594,-0.027344,0.007812,-0.101562,0.035156,-0.007812
411740.0,9.0625,0.070312,-4.023438,0.144531,0.078125,0.046875,0.011719,-0.007812,-0.027344
411764.0,8.917969,0.105469,-4.101562,-0.046875,0.230469,-0.03125,0.046875,-0.029297,-0.023438
411780.0,8.914062,0.183594,-4.0625,-0.085938,0.269531,-0.023438,0.066406,-0.041016,-0.011719
411803.0,8.957031,0.261719,-4.0625,0.0,0.386719,0.03125,0.019531,-0.007812,-0.017578
411820.0,8.953125,0.070312,-3.984375,-0.03125,0.308594,0.023438,-0.054688,0.003906,-0.011719
411844.0,8.878906,-0.429688,-4.101562,-0.078125,-0.320312,-0.015625,-0.068359,0.003906,-0.011719
411861.0,8.800781,-0.621094,-4.0625,-0.113281,-0.441406,-0.015625,-0.017578,-0.001953,-0.003906
411882.0,8.679688,-0.621094,-4.023438,-0.269531,-0.519531,0.0625,0.011719,-0.015625,0.0
411913.0,8.722656,-0.390625,-4.0625,-0.222656,-0.28125,0.03125,0.0625,-0.033203,0.013672
411927.0,8.800781,-0.199219,-4.023438,-0.222656,-0.273438,0.03125,0.03125,-0.03125,0.009766
411953.0,8.878906,-0.238281,-4.023438,-0.070312,-0.121094,0.078125,-0.042969,-0.015625,0.019531
411964.0,8.878906,-0.316406,-4.0625,-0.070312,-0.199219,0.039062,-0.089844,-0.005859,0.029297
411993.0,8.914062,-0.277344,-4.0625,-0.03125,-0.160156,0.039062,-0.070312,-0.001953,0.035156
412010.0,8.878906,-0.199219,-4.136719,-0.070312,-0.121094,0.0,-0.03125,-0.011719,0.033203
412033.0,9.21875,0.03125,-4.214844,0.277344,0.15625,-0.113281,0.085938,0.001953,0.005859
412049.0,9.21875,0.566406,-3.984375,0.351562,0.394531,0.0,-0.015625,0.015625,-0.001953
412073.0,9.296875,0.335938,-3.90625,0.351562,0.460938,0.195312,-0.099609,0.007812,0.003906
412090.0,9.101562,-0.085938,-4.136719,0.277344,0.1875,0.078125,-0.109375,0.015625,0.011719
412104.0,9.066406,-0.160156,-4.175781,0.121094,-0.011719,-0.074219,-0.050781,0.013672,0.005859
412120.0,8.992188,-0.046875,-4.175781,0.121094,0.023438,-0.042969,0.054688,-0.007812,-0.003906
412143.0,8.835938,0.03125,-4.136719,-0.105469,0.148438,-0.035156,0.109375,-0.033203,0.0
412160.0,8.796875,0.105469,-4.101562,-0.144531,0.230469,-0.035156,0.080078,-0.042969,0.0
412184.0,8.757812,-0.085938,-4.136719,-0.175781,0.046875,-0.019531,0.042969,-0.035156,0.007812
412200.0,8.722656,-0.238281,-4.175781,-0.136719,-0.027344,-0.058594,0.033203,-0.021484,0.003906
412223.0,8.800781,-0.316406,-4.175781,-0.136719,-0.183594,-0.050781,0.021484,-0.005859,0.001953
412240.0,8.839844,-0.316406,-4.136719,-0.136719,-0.175781,-0.050781,0.005859,-0.003906,0.001953
412262.0,8.992188,-0.238281,-4.136719,0.054688,-0.105469,-0.019531,0.017578,0.007812,0.007812
412280.0,8.953125,-0.160156,-4.101562,0.054688,-0.066406,-0.019531,-0.017578,0.017578,0.013672
412295.0,8.917969,-0.199219,-4.0625,0.054688,-0.027344,0.085938,-0.037109,0.023438,0.013672
412332.0,9.0625,-0.160156,-4.0625,0.121094,-0.027344,0.046875,-0.039062,0.037109,0.019531
412343.0,9.101562,-0.121094,-4.0625,0.160156,0.011719,0.039062,-0.015625,0.029297,0.015625
412360.0,8.996094,-0.046875,-4.0625,0.046875,0.046875,0.039062,-0.013672,0.013672,0.019531
412380.0,8.917969,-0.007812,-4.023438,0.007812,0.125,0.039062,-0.019531,0.001953,0.019531
412405.0,8.878906,-0.046875,-4.0625,-0.070312,0.085938,0.039062,-0.021484,0.001953,0.009766
412430.0,9.03125,0.03125,-4.136719,0.046875,0.011719,-0.113281,0.052734,0.015625,-0.003906
412444.0,9.066406,0.105469,-4.0625,0.117188,0.316406,0.085938,0.019531,0.013672,-0.003906
412460.0,9.066406,0.03125,-4.023438,0.109375,0.269531,0.078125,-0.039062,0.003906,-0.007812
412483.0,8.914062,-0.277344,-4.101562,-0.015625,-0.167969,0.0,-0.03125,0.001953,-0.003906
412500.0,8.914062,-0.277344,-4.0625,0.023438,-0.207031,0.0,0.015625,0.005859,-0.007812
412523.0,8.875,-0.160156,-4.0625,-0.054688,-0.050781,0.03125,0.048828,0.001953,-0.003906
412540.0,8.878906,-0.085938,-4.023438,-0.015625,-0.011719,-0.007812,0.035156,0.001953,-0.003906
412563.0,8.917969,-0.046875,-4.101562,-0.015625,0.070312,-0.007812,0.011719,-0.005859,-0.001953
412602.0,8.953125,-0.238281,-4.0625,0.015625,-0.128906,0.023438,-0.033203,0.003906,0.009766
412620.0,8.957031,-0.316406,-4.0625,0.023438,-0.167969,0.054688,-0.007812,0.007812,0.007812
412634.0,8.914062,-0.277344,-4.0625,0.023438,-0.113281,-0.023438,0.009766,0.005859,0.007812
412650.0,8.992188,-0.121094,-4.101562,0.023438,-0.074219,0.015625,0.017578,-0.007812,0.007812
412672.0,8.953125,-0.085938,-4.101562,0.015625,0.046875,-0.023438,0.023438,-0.011719,0.005859
412689.0,9.03125,0.105469,-4.023438,0.09375,0.171875,0.015625,0.007812,0.005859,-0.003906
412712.0,9.066406,-0.007812,-3.984375,0.128906,0.125,0.09375,-0.021484,0.007812,-0.001953
412752.0,9.03125,-0.199219,-4.023438,0.078125,-0.089844,0.039062,-0.017578,0.005859,0.001953
412769.0,8.953125,-0.121094,-4.0625,0.039062,-0.050781,0.039062,0.033203,-0.017578,-0.001953
412793.0,8.957031,-0.085938,-4.023438,-0.007812,0.039062,0.046875,0.035156,-0.027344,-0.007812
412823.0,8.957031,-0.085938,-3.984375,-0.007812,0.03125,0.085938,0.003906,-0.023438,-0.005859
412839.0,9.035156,-0.085938,-3.984375,0.03125,0.023438,0.039062,-0.044922,-0.007812,-0.009766
412863.0,8.953125,-0.238281,-4.0625,-0.007812,-0.136719,0.007812,-0.0625,-0.011719,-0.005859
412880.0,8.917969,-0.316406,-4.101562,-0.007812,-0.167969,0.0,-0.046875,-0.009766,-0.001953
412901.0,8.917969,-0.199219,-4.136719,-0.046875,-0.089844,-0.074219,-0.029297,-0.013672,0.0
412942.0,8.875,-0.085938,-4.136719,-0.078125,0.023438,-0.058594,-0.021484,-0.015625,0.0
412959.0,8.835938,-0.085938,-4.136719,-0.113281,0.023438,-0.066406,-0.03125,-0.009766,0.001953
412974.0,8.835938,-0.121094,-4.136719,-0.105469,-0.011719,-0.097656,-0.027344,-0.011719,0.0
412990.0,8.914062,-0.160156,-4.214844,-0.03125,-0.011719,-0.136719,0.001953,-0.009766,0.0
413012.0,8.953125,-0.046875,-4.175781,0.015625,0.0625,-0.082031,0.013672,-0.011719,-0.001953
413023.0,9.03125,-0.046875,-4.175781,0.09375,0.070312,-0.074219,0.015625,-0.011719,-0.011719
413052.0,8.992188,0.03125,-4.101562,0.0625,0.132812,0.007812,0.003906,-0.007812,-0.017578
413069.0,8.996094,-0.085938,-4.175781,0.054688,0.054688,-0.027344,-0.029297,0.005859,-0.017578
413092.0,8.917969,-0.160156,-4.175781,-0.023438,-0.066406,-0.058594,-0.009766,0.011719,-0.015625
413132.0,8.878906,-0.046875,-4.0625,-0.070312,0.039062,0.0625,0.023438,-0.005859,-0.007812
413149.0,8.917969,-0.046875,-4.0625,-0.0625,0.039062,0.09375,0.001953,-0.007812,0.001953
413170.0,8.835938,-0.160156,-4.0625,-0.097656,0.0,0.132812,-0.013672,-0.001953,0.009766
413189.0,8.839844,-0.199219,-4.101562,-0.136719,-0.113281,0.015625,-0.011719,-0.009766,0.009766
413210.0,8.914062,-0.160156,-4.136719,-0.015625,-0.105469,-0.019531,0.009766,-0.007812,0.007812
413228.0,8.957031,-0.085938,-4.175781,-0.015625,-0.019531,-0.050781,0.009766,-0.009766,0.005859
413250.0,8.953125,-0.007812,-4.136719,0.0,0.054688,-0.050781,0.001953,-0.005859,0.009766
413282.0,9.03125,-0.085938,-4.214844,0.109375,0.015625,-0.089844,-0.042969,0.011719,0.009766
413299.0,8.992188,-0.121094,-4.214844,0.070312,-0.019531,-0.050781,-0.015625,0.023438,0.011719
413314.0,8.996094,-0.121094,-4.175781,0.0625,0.015625,-0.011719,0.001953,0.023438,0.013672
413339.0,8.953125,-0.007812,-4.136719,0.023438,0.09375,0.023438,0.011719,0.011719,0.015625
413353.0,8.953125,0.03125,-4.136719,0.054688,0.132812,0.023438,0.009766,0.005859,0.015625
413369.0,9.035156,0.070312,-4.0625,0.054688,0.132812,0.054688,0.0,0.013672,0.005859
413391.0,9.0625,0.105469,-4.023438,0.121094,0.191406,0.09375,-0.003906,0.017578,-0.001953
413409.0,9.066406,0.03125,-4.023438,0.113281,0.183594,0.125,-0.042969,0.013672,0.005859
413432.0,9.03125,-0.160156,-4.0625,0.070312,-0.097656,0.046875,-0.03125,0.009766,0.001953
413471.0,9.03125,-0.121094,-4.0625,0.054688,-0.058594,0.039062,-0.001953,-0.007812,0.0
413503.0,8.992188,-0.007812,-4.101562,0.054688,0.046875,0.070312,-0.03125,-0.005859,-0.001953
413543.0,8.875,-0.277344,-4.0625,-0.101562,-0.230469,0.023438,-0.056641,-0.003906,0.005859
413559.0,8.839844,-0.316406,-4.136719,-0.109375,-0.269531,-0.050781,-0.015625,-0.011719,0.005859
413582.0,8.761719,-0.277344,-4.175781,-0.207031,-0.222656,-0.089844,0.009766,-0.021484,0.003906
413603.0,8.796875,-0.238281,-4.175781,-0.207031,-0.175781,-0.121094,0.025391,-0.017578,0.001953
413629.0,8.796875,-0.121094,-4.175781,-0.078125,-0.035156,-0.074219,-0.011719,0.0,-0.001953
413661.0,8.917969,-0.238281,-4.175781,-0.023438,-0.144531,-0.066406,-0.033203,0.013672,0.001953
413692.0,8.917969,-0.160156,-4.175781,-0.015625,-0.058594,-0.066406,-0.013672,0.019531,0.003906
413709.0,8.878906,-0.046875,-4.136719,-0.015625,0.015625,-0.066406,0.021484,0.013672,0.001953
413731.0,8.839844,-0.046875,-4.101562,-0.082031,0.070312,0.007812,0.025391,0.013672,0.003906
413742.0,8.835938,-0.007812,-4.0625,-0.082031,0.109375,0.046875,0.013672,0.013672,0.003906
413759.0,8.953125,0.03125,-4.136719,-0.007812,0.1875,0.007812,0.033203,0.015625,-0.001953
413779.0,8.953125,0.105469,-3.984375,0.03125,0.261719,0.132812,-0.007812,0.007812,0.001953
413811.0,8.996094,-0.085938,-3.984375,0.070312,0.015625,0.117188,-0.011719,0.001953,0.001953
413828.0,9.03125,-0.046875,-3.984375,0.117188,0.054688,0.078125,-0.001953,-0.009766,0.001953
413851.0,9.0625,-0.046875,-3.984375,0.144531,0.039062,0.109375,0.001953,-0.011719,-0.003906
413868.0,9.105469,0.03125,-3.984375,0.144531,0.078125,0.070312,-0.005859,-0.011719,-0.005859
413882.0,9.105469,-0.007812,-4.023438,0.128906,0.03125,0.070312,-0.015625,-0.013672,0.0
413898.0,9.0625,-0.046875,-3.984375,0.128906,0.070312,0.023438,-0.035156,-0.009766,0.0
413922.0,8.957031,-0.199219,-4.101562,0.007812,-0.128906,-0.015625,-0.033203,-0.009766,0.001953
413938.0,8.914062,-0.160156,-4.101562,0.007812,-0.136719,-0.023438,-0.007812,-0.015625,0.007812
413962.0,8.875,-0.085938,-4.136719,-0.078125,-0.015625,-0.050781,0.015625,-0.021484,0.0
414000.0,8.839844,-0.085938,-4.175781,-0.105469,-0.015625,-0.089844,0.003906,-0.023438,-0.001953
414041.0,8.878906,-0.199219,-4.214844,-0.0625,-0.121094,-0.113281,0.015625,-0.007812,-0.001953
414058.0,8.835938,-0.160156,-4.214844,-0.0625,-0.082031,-0.074219,0.025391,-0.005859,0.0
414078.0,8.917969,-0.085938,-4.175781,-0.054688,0.0,-0.113281,0.007812,-0.003906,0.005859
414099.0,8.914062,-0.085938,-4.136719,-0.007812,0.0,-0.058594,-0.007812,0.003906,0.011719
414113.0,8.878906,-0.085938,-4.175781,-0.046875,0.007812,-0.058594,-0.013672,0.005859,0.009766
414151.0,9.03125,0.03125,-4.101562,0.117188,0.125,0.023438,-0.005859,0.019531,0.001953
414168.0,8.996094,-0.046875,-4.101562,0.117188,0.046875,0.0625,-0.013672,0.011719,0.007812
414191.0,8.953125,-0.121094,-4.0625,0.023438,-0.035156,0.054688,-0.011719,0.007812,0.001953
414222.0,8.914062,-0.085938,-4.101562,-0.015625,0.007812,0.015625,0.019531,0.001953,0.003906
414238.0,8.875,-0.085938,-4.101562,-0.015625,0.007812,-0.019531,0.021484,-0.003906,0.001953
414260.0,8.953125,-0.085938,-4.101562,0.023438,0.0,0.023438,0.011719,0.0,0.0
414302.0,8.914062,-0.199219,-4.023438,-0.015625,-0.105469,0.09375,-0.013672,0.0,0.003906
414340.0,8.914062,-0.121094,-4.101562,-0.015625,-0.019531,0.015625,-0.003906,-0.003906,0.007812
414381.0,8.914062,-0.121094,-4.136719,-0.007812,-0.011719,-0.027344,-0.003906,-0.013672,0.015625
414398.0,8.917969,-0.199219,-4.136719,-0.007812,-0.050781,-0.066406,0.0,-0.009766,0.011719
414418.0,8.914062,-0.121094,-4.136719,-0.046875,-0.042969,-0.019531,0.029297,-0.011719,0.015625
414439.0,8.914062,-0.121094,-4.136719,-0.007812,-0.003906,-0.058594,0.041016,-0.015625,0.015625
414452.0,8.917969,-0.046875,-4.136719,0.0,0.039062,-0.019531,0.039062,-0.015625,0.015625
414468.0,8.917969,-0.085938,-4.175781,0.0,0.085938,0.03125,0.035156,-0.011719,0.017578
414490.0,8.953125,-0.121094,-4.136719,0.039062,0.027344,-0.003906,0.033203,-0.011719,0.015625
414530.0,9.21875,0.296875,-4.175781,0.308594,0.4375,-0.042969,0.046875,0.013672,-0.007812
414570.0,9.140625,0.105469,-3.871094,0.199219,0.207031,0.246094,-0.039062,0.015625,-0.011719
414588.0,9.0625,-0.582031,-4.101562,0.144531,-0.191406,0.171875,0.013672,-0.005859,-0.023438
414602.0,8.992188,-0.734375,-4.175781,-0.015625,-0.542969,-0.183594,0.119141,-0.009766,-0.041016
414617.0,8.953125,-0.007812,-4.292969,-0.015625,-0.230469,-0.21875,0.236328,-0.019531,-0.052734
414640.0,8.878906,0.414062,-4.175781,-0.09375,0.515625,-0.066406,0.216797,-0.019531,-0.044922
414681.0,8.757812,-0.238281,-4.253906,-0.214844,-0.128906,-0.136719,-0.015625,0.021484,0.005859
414698.0,8.722656,-0.429688,-4.253906,-0.253906,-0.242188,-0.136719,0.001953,0.046875,0.009766
414721.0,8.71875,-0.582031,-4.214844,-0.261719,-0.472656,-0.113281,0.058594,0.042969,0.005859
414738.0,8.757812,-0.390625,-4.175781,-0.222656,-0.390625,-0.113281,0.068359,0.027344,-0.001953
414760.0,8.796875,-0.277344,-4.023438,-0.183594,-0.152344,0.070312,0.025391,0.011719,-0.001953
414777.0,8.878906,-0.351562,-4.023438,-0.144531,-0.191406,0.0625,-0.011719,0.013672,0.007812
414792.0,8.875,-0.390625,-3.984375,-0.109375,-0.3125,0.0625,-0.015625,0.027344,0.007812
414807.0,8.957031,-0.277344,-4.023438,-0.070312,-0.265625,0.0625,-0.005859,0.044922,0.005859
414830.0,8.992188,0.03125,-3.945312,0.0,0.15625,0.132812,-0.019531,0.042969,0.007812
414847.0,8.996094,-0.085938,-3.984375,0.039062,0.109375,0.085938,-0.072266,0.011719,0.013672
414870.0,8.953125,-0.160156,-3.945312,-0.039062,-0.042969,0.125,-0.068359,0.003906,0.011719
414927.0,8.992188,-0.160156,-4.0625,0.0,0.03125,0.125,-0.03125,-0.003906,-0.007812
414942.0,8.957031,-0.199219,-4.0625,0.0,-0.050781,0.085938,-0.03125,-0.007812,-0.009766
414981.0,8.957031,-0.199219,-4.101562,-0.039062,-0.097656,-0.023438,-0.056641,-0.007812,-0.001953
414998.0,8.953125,-0.238281,-4.101562,-0.039062,-0.144531,-0.066406,-0.039062,0.005859,0.001953
415019.0,8.957031,-0.199219,-4.101562,-0.039062,-0.113281,-0.03125,-0.03125,0.005859,0.003906
415061.0,8.875,-0.277344,-4.101562,-0.117188,-0.175781,-0.03125,0.011719,-0.007812,0.011719
415077.0,8.878906,-0.199219,-4.101562,-0.117188,-0.136719,-0.03125,0.011719,-0.011719,0.015625
415100.0,8.914062,-0.121094,-4.136719,-0.078125,-0.019531,-0.066406,-0.003906,-0.009766,0.009766
415131.0,8.992188,0.03125,-4.101562,0.0,0.140625,-0.03125,-0.019531,0.001953,0.005859
415148.0,9.03125,-0.007812,-4.0625,0.039062,0.132812,0.007812,-0.060547,0.003906,0.009766
415170.0,9.03125,-0.121094,-4.136719,0.070312,0.019531,-0.089844,-0.060547,0.007812,0.009766
415187.0,8.992188,-0.085938,-4.136719,0.03125,0.054688,-0.054688,-0.021484,0.007812,0.011719
415211.0,8.996094,-0.046875,-4.101562,0.03125,0.085938,-0.054688,0.0,0.003906,0.009766
415227.0,8.953125,-0.007812,-4.101562,-0.007812,0.125,-0.054688,0.0,-0.003906,0.009766
415251.0,8.914062,-0.007812,-4.101562,-0.054688,0.125,-0.046875,-0.007812,-0.003906,0.009766
415268.0,8.953125,-0.121094,-4.101562,-0.054688,0.046875,-0.054688,-0.001953,0.003906,0.003906
415282.0,8.914062,-0.121094,-4.101562,-0.054688,0.039062,-0.046875,0.003906,0.003906,0.003906
415321.0,8.953125,-0.121094,-4.136719,-0.007812,-0.003906,-0.074219,-0.001953,0.005859,0.007812
415337.0,8.914062,-0.160156,-4.136719,-0.046875,-0.042969,-0.066406,0.001953,0.003906,0.009766
415360.0,8.953125,-0.121094,-4.101562,-0.007812,-0.003906,-0.03125,0.009766,0.015625,0.003906
415377.0,8.992188,-0.085938,-4.101562,-0.007812,0.03125,-0.066406,-0.007812,0.025391,0.009766
415400.0,9.03125,-0.085938,-4.0625,0.070312,0.03125,0.015625,-0.035156,0.025391,0.005859
415417.0,8.953125,-0.085938,-4.0625,0.03125,0.070312,0.007812,-0.041016,0.035156,0.003906
415440.0,9.035156,-0.046875,-4.101562,0.0625,0.0625,-0.039062,0.023438,0.03125,-0.007812
415457.0,9.035156,0.070312,-3.945312,0.097656,0.171875,0.0,-0.001953,0.029297,-0.013672
415477.0,9.035156,-0.121094,-3.984375,0.015625,0.132812,0.109375,-0.023438,0.011719,-0.011719
415498.0,8.996094,-0.238281,-4.023438,0.054688,-0.144531,0.03125,0.021484,0.009766,-0.013672
415511.0,8.953125,-0.199219,-3.984375,-0.023438,-0.066406,0.0625,0.039062,0.003906,-0.017578
415527.0,8.957031,-0.160156,-3.984375,-0.023438,-0.066406,0.0625,0.042969,-0.005859,-0.015625
415550.0,8.957031,-0.085938,-3.984375,-0.023438,0.007812,0.054688,0.029297,-0.009766,-0.011719
415567.0,8.917969,-0.160156,-3.984375,-0.023438,0.007812,0.054688,-0.003906,-0.013672,-0.005859
415589.0,8.875,-0.316406,-4.023438,-0.101562,-0.214844,0.015625,-0.011719,-0.009766,-0.003906
415609.0,8.878906,-0.351562,-4.023438,-0.09375,-0.25,0.023438,-0.005859,-0.003906,-0.001953
415622.0,8.917969,-0.351562,-4.023438,-0.0625,-0.207031,0.015625,0.009766,-0.003906,-0.001953
415677.0,8.953125,-0.121094,-4.0625,0.0,-0.066406,-0.023438,-0.005859,-0.009766,0.009766
415700.0,8.957031,-0.085938,-4.023438,0.0,0.0625,0.015625,-0.019531,0.0,0.007812
415717.0,8.953125,-0.121094,-4.0625,0.0,0.0625,-0.015625,-0.023438,-0.003906,0.007812
415739.0,8.953125,-0.160156,-4.101562,0.0,-0.003906,-0.0625,-0.019531,-0.007812,0.009766
415779.0,8.953125,-0.085938,-4.0625,0.007812,0.070312,-0.007812,0.035156,-0.021484,0.007812
415811.0,8.914062,-0.121094,-4.0625,-0.070312,0.042969,-0.007812,0.033203,-0.017578,0.005859
415827.0,8.914062,-0.160156,-4.0625,-0.070312,0.003906,-0.074219,0.035156,-0.017578,0.003906
415850.0,8.953125,-0.160156,-4.101562,0.015625,0.003906,-0.03125,0.041016,-0.015625,0.001953
415866.0,8.992188,-0.160156,-4.136719,0.015625,0.011719,-0.023438,0.039062,-0.015625,0.003906
415889.0,8.992188,-0.160156,-4.136719,0.0625,0.011719,-0.050781,0.037109,-0.015625,0.005859
415929.0,8.914062,-0.121094,-4.101562,-0.03125,0.058594,-0.015625,0.021484,-0.003906,0.009766
415946.0,8.953125,-0.121094,-4.101562,0.015625,0.058594,-0.015625,0.019531,0.0,0.003906
415969.0,8.953125,-0.121094,-4.0625,0.015625,0.058594,0.03125,0.019531,-0.003906,0.003906
416000.0,8.953125,-0.121094,-4.0625,0.015625,0.058594,-0.007812,0.027344,-0.011719,0.007812
416017.0,8.953125,-0.160156,-4.0625,0.015625,0.050781,0.03125,0.023438,-0.011719,0.007812
416040.0,8.953125,-0.121094,-4.101562,0.015625,0.058594,0.0,0.027344,-0.011719,0.011719
416056.0,8.953125,-0.160156,-4.101562,0.015625,0.058594,-0.007812,0.03125,-0.015625,0.013672
416080.0,8.953125,-0.160156,-4.0625,0.015625,0.027344,0.039062,0.035156,-0.015625,0.013672
416097.0,8.953125,-0.160156,-4.101562,0.015625,0.058594,0.046875,0.044922,-0.017578,0.011719
416119.0,8.992188,-0.160156,-4.101562,0.054688,0.027344,0.0,0.048828,-0.015625,0.013672
416136.0,8.992188,-0.121094,-4.136719,0.054688,0.027344,-0.027344,0.048828,-0.015625,0.015625
416159.0,8.953125,-0.121094,-4.136719,0.007812,0.074219,-0.027344,0.052734,-0.011719,0.019531
416176.0,8.953125,-0.121094,-4.136719,0.015625,0.074219,-0.027344,0.0625,-0.013672,0.021484
416197.0,8.953125,-0.121094,-4.101562,0.054688,0.082031,-0.058594,0.070312,-0.015625,0.021484
416216.0,8.917969,-0.121094,-4.175781,0.015625,0.082031,0.015625,0.080078,-0.017578,0.023438
416237.0,8.992188,-0.199219,-4.175781,0.007812,0.050781,-0.011719,0.09375,-0.017578,0.019531
416271.0,8.957031,-0.160156,-4.175781,0.007812,0.074219,-0.035156,0.154297,-0.021484,0.027344
416286.0,8.917969,-0.199219,-4.214844,-0.03125,0.042969,-0.074219,0.177734,-0.025391,0.023438
416309.0,8.875,-0.121094,-4.214844,-0.0625,0.144531,-0.066406,0.203125,-0.025391,0.015625
416326.0,8.875,-0.160156,-4.253906,-0.0625,0.113281,-0.097656,0.248047,-0.029297,-0.005859
416346.0,8.878906,-0.238281,-4.328125,-0.0625,0.136719,-0.136719,0.308594,-0.035156,-0.035156
416366.0,8.835938,-0.199219,-4.328125,-0.015625,0.113281,-0.164062,0.410156,-0.050781,-0.066406
416380.0,8.835938,-0.199219,-4.367188,-0.089844,0.136719,-0.15625,0.466797,-0.060547,-0.083984
416419.0,8.796875,-0.121094,-4.367188,-0.113281,0.269531,-0.179688,0.765625,-0.115234,-0.179688
416436.0,8.796875,-0.121094,-4.519531,-0.152344,0.285156,-0.25,0.925781,-0.138672,-0.246094
416460.0,8.835938,-0.007812,-4.636719,-0.058594,0.445312,-0.410156,1.101562,-0.158203,-0.320312
416476.0,8.761719,-0.007812,-4.75,-0.089844,0.46875,-0.402344,1.320312,-0.205078,-0.398438
416499.0,8.835938,0.222656,-4.867188,-0.027344,0.761719,-0.59375,1.558594,-0.236328,-0.478516
416516.0,8.796875,0.375,-4.828125,0.015625,0.9375,-0.539062,1.763672,-0.271484,-0.5625
416546.0,8.835938,0.644531,-4.980469,0.003906,1.121094,-0.738281,2.041016,-0.330078,-0.65625
416568.0,8.644531,0.488281,-4.941406,-0.160156,1.214844,-0.566406,2.132812,-0.361328,-0.699219
416585.0,8.570312,0.375,-5.019531,-0.144531,1.285156,-0.582031,2.408203,-0.439453,-0.830078
416609.0,8.375,0.144531,-5.324219,-0.371094,1.003906,-0.855469,2.59375,-0.529297,-0.900391
416628.0,8.300781,0.105469,-5.210938,-0.433594,1.003906,-0.71875,2.710938,-0.580078,-0.939453
416656.0,8.226562,-0.660156,-5.09375,-0.339844,0.585938,-0.441406,2.652344,-0.560547,-0.914062
416681.0,8.378906,-0.964844,-4.867188,-0.253906,0.175781,-0.226562,2.5625,-0.498047,-0.892578
416698.0,8.375,-1.15625,-4.519531,-0.238281,0.054688,0.136719,2.375,-0.394531,-0.863281
416720.0,8.453125,-1.425781,-4.367188,-0.101562,-0.382812,0.257812,2.101562,-0.285156,-0.779297
416735.0,8.457031,-2.0,-4.101562,-0.140625,-0.574219,0.328125,1.857422,-0.160156,-0.640625
416759.0,8.535156,-2.230469,-3.640625,-0.0625,-0.832031,0.984375,1.585938,0.009766,-0.511719
416775.0,8.574219,-2.421875,-3.488281,-0.078125,-0.921875,1.070312,1.304688,0.201172,-0.408203
416797.0,8.796875,-2.882812,-3.5625,0.144531,-1.390625,0.914062,1.166016,0.291016,-0.363281
416808.0,8.796875,-2.957031,-3.601562,0.121094,-1.449219,0.828125,0.830078,0.474609,-0.214844
416838.0,8.875,-2.613281,-3.066406,0.117188,-1.050781,1.191406,0.148438,0.662109,0.046875
416856.0,8.761719,-2.382812,-3.332031,0.132812,-0.929688,1.128906,-0.246094,0.775391,0.126953
416870.0,8.679688,-2.269531,-3.488281,-0.234375,-0.660156,0.46875,-0.355469,0.798828,0.119141
416885.0,8.953125,-2.34375,-4.023438,-0.152344,-0.78125,0.175781,-0.289062,0.773438,0.095703
416908.0,9.375,-1.695312,-4.214844,0.414062,-0.132812,-0.402344,-0.121094,0.765625,0.101562
416925.0,9.644531,-0.660156,-4.0625,0.542969,0.34375,-0.441406,0.404297,0.755859,0.025391
416950.0,9.605469,0.261719,-3.945312,0.542969,1.894531,-0.429688,0.382812,0.695312,-0.003906
416965.0,9.566406,-0.351562,-3.523438,0.433594,1.753906,-0.347656,0.25,0.671875,0.021484
416990.0,9.71875,-1.308594,-2.566406,0.5625,0.371094,0.691406,0.214844,0.685547,0.033203
417005.0,10.253906,-1.386719,-2.375,1.0,0.570312,0.886719,0.203125,0.689453,0.009766
417029.0,10.066406,-1.808594,-2.03125,0.820312,-0.097656,0.960938,0.259766,0.615234,0.03125
417046.0,9.757812,-1.730469,-1.953125,0.691406,-0.042969,0.9375,0.291016,0.5625,0.039062
417060.0,9.761719,-1.578125,-1.953125,0.429688,0.363281,0.980469,0.257812,0.535156,0.048828
417078.0,9.566406,-1.15625,-1.953125,0.253906,0.609375,0.765625,0.130859,0.498047,0.089844
417097.0,9.21875,-1.503906,-2.375,-0.113281,0.285156,0.242188,0.091797,0.492188,0.113281
417139.0,9.257812,-1.503906,-2.300781,-0.117188,0.347656,0.121094,0.3125,0.457031,0.109375
417155.0,9.445312,-1.695312,-2.144531,-0.015625,0.335938,0.136719,0.263672,0.417969,0.119141
417178.0,9.527344,-2.230469,-1.648438,0.113281,-0.308594,0.578125,0.238281,0.439453,0.119141
417195.0,9.378906,-2.0,-1.648438,0.105469,-0.253906,0.53125,0.265625,0.441406,0.128906
417218.0,8.640625,-1.730469,-1.761719,-0.792969,0.261719,0.285156,0.335938,0.392578,0.126953
417235.0,9.144531,-1.847656,-1.800781,-0.605469,0.199219,0.121094,0.501953,0.316406,0.126953
417249.0,9.445312,-1.886719,-1.648438,0.34375,0.054688,0.390625,0.521484,0.298828,0.126953
417265.0,10.0625,-2.152344,-1.1875,0.535156,0.0,0.496094,0.423828,0.279297,0.134766
417289.0,9.375,-1.886719,-0.765625,-0.085938,0.246094,1.007812,0.158203,0.318359,0.134766
417304.0,9.335938,-2.691406,-1.148438,-0.324219,-0.121094,0.621094,0.050781,0.316406,0.119141
417329.0,9.222656,-2.269531,-1.53125,-0.253906,-0.089844,0.109375,0.171875,0.320312,0.09375
417345.0,9.527344,-2.0,-1.417969,-0.148438,0.226562,0.144531,0.158203,0.251953,0.082031
417369.0,9.722656,-2.957031,-1.148438,0.234375,-0.738281,0.375,0.189453,0.216797,0.076172
417385.0,9.378906,-2.917969,-0.921875,0.195312,-0.769531,0.761719,0.203125,0.269531,0.046875
417400.0,9.417969,-2.613281,-0.691406,-0.042969,-0.140625,0.707031,0.164062,0.25,0.042969
417415.0,9.417969,-2.0,-0.921875,-0.085938,0.058594,0.554688,0.056641,0.226562,0.044922
417438.0,9.601562,-2.460938,-1.226562,0.105469,-0.195312,0.101562,0.087891,0.203125,0.03125
417454.0,9.488281,-2.269531,-1.1875,0.132812,-0.148438,0.039062,0.173828,0.207031,0.017578
417478.0,9.417969,-2.34375,-0.804688,-0.101562,-0.0625,0.429688,0.103516,0.173828,0.015625
417495.0,9.644531,-2.765625,-0.574219,0.011719,-0.332031,0.605469,0.087891,0.150391,0.009766
417519.0,9.445312,-2.34375,-0.308594,-0.066406,-0.054688,0.863281,0.076172,0.150391,0.0
417535.0,9.484375,-2.0,-0.574219,-0.109375,0.097656,0.6875,0.082031,0.117188,0.007812
417558.0,9.5625,-2.0,-0.84375,0.042969,0.296875,0.265625,0.107422,0.060547,0.007812
417588.0,9.484375,-2.152344,-0.765625,-0.035156,0.152344,0.3125,0.125,0.050781,0.023438
417615.0,9.566406,-2.535156,-0.804688,-0.074219,0.074219,0.378906,0.0625,0.005859,0.03125
417629.0,9.644531,-2.613281,-0.84375,0.042969,-0.140625,0.148438,0.068359,0.013672,0.029297
417655.0,9.414062,-2.5,-0.84375,-0.109375,-0.140625,0.171875,0.087891,0.007812,0.011719
417669.0,9.445312,-2.535156,-0.882812,0.042969,-0.171875,0.125,0.107422,0.005859,0.009766
417685.0,9.644531,-2.152344,-1.226562,0.117188,-0.09375,0.003906,0.111328,0.03125,0.003906
417700.0,9.566406,-1.960938,-1.265625,-0.109375,0.328125,-0.203125,0.087891,0.037109,0.001953
417725.0,9.523438,-2.84375,-0.921875,-0.109375,-0.390625,-0.097656,0.167969,0.017578,-0.015625
417748.0,9.488281,-2.652344,-0.539062,-0.035156,-0.324219,0.460938,0.177734,0.021484,-0.027344
417765.0,9.527344,-2.191406,-0.730469,0.035156,-0.09375,0.371094,0.103516,0.009766,-0.037109
417784.0,9.445312,-2.5,-1.035156,-0.082031,-0.09375,0.054688,0.105469,0.001953,-0.037109
417804.0,9.375,-2.304688,-0.765625,-0.117188,-0.054688,0.09375,0.123047,-0.009766,-0.058594
417824.0,9.414062,-2.535156,-0.613281,-0.195312,-0.214844,0.316406,0.109375,-0.033203,-0.060547
417844.0,9.828125,-2.421875,-0.957031,0.1875,-0.230469,0.078125,0.080078,-0.003906,-0.072266
417865.0,9.183594,-2.382812,-1.113281,-0.242188,0.066406,-0.152344,0.033203,-0.011719,-0.080078
417898.0,9.375,-2.421875,-0.804688,-0.171875,-0.15625,0.148438,0.087891,-0.021484,-0.089844
417915.0,9.640625,-2.382812,-0.804688,-0.019531,-0.203125,0.109375,0.087891,-0.009766,-0.099609
417935.0,9.527344,-2.382812,-0.996094,-0.140625,0.082031,0.03125,0.076172,-0.023438,-0.109375
417955.0,9.375,-2.691406,-0.765625,-0.027344,-0.15625,-0.042969,0.115234,-0.041016,-0.126953
417975.0,9.796875,-2.460938,-0.765625,0.117188,-0.371094,0.339844,0.117188,-0.037109,-0.146484
417995.0,9.644531,-2.039062,-0.957031,0.234375,-0.273438,0.1875,0.072266,-0.023438,-0.154297
418009.0,9.527344,-2.113281,-1.035156,-0.082031,-0.15625,-0.128906,0.074219,-0.03125,-0.164062
418047.0,9.339844,-2.0,-0.691406,-0.25,0.085938,0.261719,0.140625,-0.039062,-0.179688
418064.0,9.523438,-2.113281,-0.730469,-0.179688,-0.007812,0.261719,0.109375,-0.066406,-0.166016
418088.0,9.523438,-2.152344,-0.765625,-0.074219,-0.121094,0.1875,0.130859,-0.070312,-0.167969
418105.0,9.683594,-2.304688,-0.765625,0.003906,-0.214844,0.195312,0.173828,-0.082031,-0.173828
418119.0,9.523438,-2.304688,-0.882812,-0.226562,-0.285156,0.164062,0.201172,-0.087891,-0.183594
418158.0,9.417969,-1.847656,-0.460938,-0.203125,0.066406,0.53125,0.279297,-0.119141,-0.236328
418174.0,9.105469,-2.0,-0.191406,-0.25,0.050781,0.691406,0.195312,-0.169922,-0.236328
418198.0,10.183594,-2.34375,0.152344,0.554688,-0.507812,1.191406,0.173828,-0.269531,-0.236328
418214.0,9.988281,-2.039062,-0.308594,0.820312,-0.523438,0.9375,0.191406,-0.236328,-0.253906
418237.0,9.644531,-1.464844,-0.921875,0.007812,0.285156,0.195312,0.117188,-0.255859,-0.259766
418254.0,9.417969,-1.273438,-1.265625,-0.210938,0.261719,-0.085938,0.070312,-0.269531,-0.261719
418277.0,9.5625,-1.347656,-1.074219,-0.066406,0.300781,0.136719,-0.041016,-0.277344,-0.253906
418307.0,9.417969,-1.539062,-0.804688,-0.21875,0.039062,0.492188,-0.115234,-0.289062,-0.248047
418324.0,9.871094,-1.15625,-0.652344,0.046875,0.207031,0.5625,-0.234375,-0.292969,-0.248047
418347.0,9.644531,-0.964844,-1.265625,0.007812,0.511719,0.148438,-0.285156,-0.292969,-0.226562
418364.0,9.414062,-1.003906,-1.800781,-0.183594,0.441406,-0.125,-0.333984,-0.283203,-0.197266
418387.0,9.488281,-1.234375,-2.070312,-0.136719,0.140625,-0.53125,-0.257812,-0.269531,-0.207031
418404.0,9.527344,-1.425781,-1.761719,-0.105469,0.042969,-0.277344,-0.179688,-0.283203,-0.214844
418428.0,9.644531,-1.539062,-1.839844,0.015625,-0.257812,-0.191406,-0.162109,-0.259766,-0.203125
418463.0,9.867188,-0.925781,-2.335938,0.253906,0.476562,-0.425781,-0.40625,-0.173828,-0.179688
418484.0,9.984375,-1.082031,-2.566406,0.292969,0.160156,-0.609375,-0.484375,-0.107422,-0.175781
418504.0,10.105469,-1.425781,-3.21875,0.554688,-0.15625,-0.96875,-0.451172,-0.015625,-0.166016
418524.0,9.679688,-1.617188,-3.714844,0.285156,-0.554688,-1.796875,-0.347656,0.082031,-0.173828
418544.0,9.800781,-0.851562,-3.371094,0.125,-0.019531,-1.804688,-0.230469,0.128906,-0.146484
418564.0,9.566406,-0.890625,-3.027344,0.007812,0.132812,-1.4375,-0.042969,0.134766,-0.099609
418584.0,10.140625,-0.507812,-3.066406,0.347656,0.1875,-1.269531,0.167969,0.179688,-0.039062
418616.0,9.339844,-0.316406,-2.71875,-0.328125,0.636719,-1.046875,0.078125,0.224609,-0.080078
418647.0,8.796875,-1.234375,-2.335938,-0.878906,-0.304688,-0.710938,-0.164062,0.181641,-0.068359
418663.0,8.644531,-3.226562,-3.105469,-0.878906,-1.15625,-0.910156,-0.306641,-0.060547,-0.009766
418688.0,8.492188,-4.453125,-3.792969,-1.179688,-3.546875,-2.128906,0.072266,-0.337891,0.001953
418703.0,8.640625,-3.722656,-4.0625,-1.019531,-3.230469,-2.160156,0.525391,-0.634766,0.046875
418727.0,8.644531,-1.730469,-3.945312,-0.980469,-0.761719,-2.046875,0.578125,-0.900391,0.130859
418743.0,8.953125,-1.082031,-3.871094,-0.800781,-0.203125,-1.914062,0.375,-1.123047,0.203125
418766.0,8.839844,-1.347656,-4.023438,-0.675781,-0.269531,-1.710938,0.289062,-1.181641,0.240234
418784.0,8.613281,-1.65625,-4.0625,-0.753906,-0.386719,-1.585938,0.230469,-1.236328,0.283203
418798.0,8.570312,-1.769531,-4.101562,-0.796875,-0.742188,-1.445312,0.289062,-1.232422,0.259766
418813.0,8.457031,-1.960938,-4.136719,-0.835938,-0.695312,-1.320312,0.541016,-1.216797,0.208984
418837.0,8.609375,-1.695312,-4.214844,-0.648438,-0.359375,-1.113281,0.871094,-1.222656,0.158203
418853.0,8.492188,-1.386719,-4.253906,-0.640625,-0.15625,-0.964844,1.193359,-1.228516,0.082031
418876.0,8.644531,-1.082031,-4.292969,-0.433594,0.441406,-0.792969,1.472656,-1.222656,-0.015625
418893.0,8.839844,-1.003906,-4.328125,-0.125,0.582031,-0.0625,1.650391,-1.046875,-0.070312
418917.0,9.257812,-0.699219,-4.023438,0.335938,1.058594,-0.242188,1.763672,-0.955078,-0.091797
418934.0,9.484375,-0.199219,-3.792969,0.445312,1.382812,-0.035156,1.734375,-0.771484,-0.091797
418957.0,9.414062,0.527344,-2.875,0.609375,2.511719,1.046875,1.421875,-0.457031,-0.080078
418974.0,9.375,0.605469,-2.796875,0.578125,2.589844,1.171875,0.972656,-0.138672,-0.076172
418993.0,9.640625,0.679688,-2.414062,0.632812,2.660156,1.316406,0.53125,0.246094,-0.097656
419014.0,10.023438,-1.808594,-1.953125,1.066406,1.871094,2.019531,0.300781,0.654297,-0.099609
419028.0,10.445312,-1.195312,-2.757812,2.046875,1.800781,1.511719,0.445312,0.878906,-0.103516
419053.0,10.867188,1.371094,-1.839844,2.121094,2.230469,1.792969,-0.324219,1.375,-0.197266
419073.0,10.144531,-1.003906,-3.714844,1.523438,1.402344,0.117188,-0.75,1.111328,0.080078
419093.0,9.757812,-0.925781,-3.105469,1.054688,1.035156,-0.511719,-0.638672,0.964844,-0.0625
419113.0,10.605469,-2.152344,-1.953125,0.882812,0.390625,0.785156,-0.318359,0.884766,-0.228516
419138.0,11.753906,-2.039062,-1.570312,1.679688,-0.492188,1.164062,0.212891,0.826172,-0.21875
419163.0,9.683594,-0.925781,-1.1875,0.445312,0.558594,1.082031,0.494141,0.566406,-0.128906
419183.0,8.496094,-0.199219,-1.074219,-0.128906,1.699219,1.953125,0.164062,0.570312,-0.050781
419223.0,8.917969,-2.230469,-1.839844,-0.484375,-0.132812,0.53125,0.074219,0.371094,0.035156
419243.0,9.296875,-2.535156,-2.183594,-0.429688,-0.5625,0.070312,0.353516,0.337891,-0.011719
419264.0,9.488281,-1.65625,-1.761719,0.058594,-0.164062,0.070312,0.332031,0.355469,-0.001953
419276.0,9.445312,-1.425781,-1.570312,0.003906,0.457031,0.445312,0.222656,0.349609,0.025391
419293.0,9.5625,-1.386719,-1.648438,0.074219,0.496094,0.414062,0.105469,0.355469,0.068359
419333.0,9.527344,-1.464844,-1.648438,0.164062,0.410156,0.035156,0.347656,0.294922,0.082031
419354.0,9.179688,-1.539062,-1.304688,-0.148438,0.519531,0.269531,0.382812,0.242188,0.095703
419368.0,9.261719,-1.65625,-1.074219,-0.234375,0.121094,0.675781,0.345703,0.228516,0.105469
419383.0,9.722656,-2.191406,-0.996094,0.035156,-0.054688,0.675781,0.335938,0.171875,0.125
419407.0,9.871094,-1.808594,-1.226562,0.371094,0.222656,0.375,0.259766,0.197266,0.132812
419423.0,9.683594,-1.65625,-1.339844,0.296875,0.390625,0.230469,0.171875,0.201172,0.138672
419446.0,9.523438,-1.921875,-1.378906,0.027344,0.164062,0.128906,0.167969,0.208984,0.132812
419463.0,9.445312,-1.808594,-1.1875,0.027344,0.292969,0.21875,0.216797,0.189453,0.134766
419487.0,9.417969,-2.230469,-1.226562,-0.085938,-0.082031,0.1875,0.228516,0.158203,0.144531
419503.0,9.335938,-2.5,-0.957031,-0.125,-0.140625,0.285156,0.207031,0.140625,0.138672
419517.0,9.417969,-2.765625,-0.957031,0.066406,-0.800781,0.507812,0.21875,0.125,0.130859
419533.0,9.523438,-2.726562,-0.765625,0.105469,-0.753906,0.492188,0.244141,0.119141,0.121094
419556.0,9.566406,-2.113281,-1.074219,0.066406,0.128906,0.207031,0.220703,0.115234,0.113281
419573.0,9.527344,-2.039062,-1.1875,0.027344,0.289062,0.152344,0.164062,0.099609,0.101562
419595.0,9.445312,-2.382812,-1.1875,-0.042969,-0.09375,0.039062,0.179688,0.095703,0.09375
419637.0,9.449219,-2.613281,-0.804688,-0.042969,-0.292969,0.367188,0.128906,0.076172,0.070312
419653.0,9.378906,-2.613281,-0.921875,-0.003906,-0.285156,0.320312,0.109375,0.083984,0.058594
419668.0,9.339844,-2.5,-1.074219,-0.195312,0.0,0.027344,0.097656,0.078125,0.056641
419684.0,9.417969,-2.230469,-1.113281,-0.15625,0.113281,-0.023438,0.0625,0.074219,0.054688
419707.0,9.5625,-2.460938,-1.035156,0.074219,-0.101562,0.066406,0.087891,0.068359,0.044922
419722.0,9.417969,-2.304688,-0.84375,-0.042969,0.015625,0.242188,0.085938,0.058594,0.041016
419746.0,9.445312,-2.5,-0.957031,-0.042969,-0.125,0.105469,0.074219,0.054688,0.041016
419762.0,9.683594,-2.460938,-0.996094,0.113281,-0.117188,0.105469,0.046875,0.066406,0.037109
419786.0,9.449219,-2.304688,-1.1875,-0.042969,0.085938,-0.15625,0.058594,0.074219,0.035156
419803.0,9.378906,-2.304688,-1.1875,-0.078125,0.128906,-0.203125,0.052734,0.085938,0.029297
419818.0,9.445312,-2.34375,-1.226562,-0.003906,0.09375,-0.140625,0.054688,0.087891,0.029297
419843.0,9.414062,-2.382812,-0.996094,-0.003906,0.101562,-0.011719,0.037109,0.089844,0.037109
419862.0,9.296875,-2.460938,-0.730469,-0.234375,-0.007812,0.15625,0.050781,0.076172,0.037109
419882.0,9.5625,-2.421875,-0.691406,-0.078125,-0.039062,0.207031,0.0625,0.072266,0.042969
419902.0,9.566406,-2.304688,-0.84375,0.1875,0.078125,0.164062,0.046875,0.072266,0.050781
419922.0,9.445312,-2.421875,-0.921875,0.074219,0.125,0.109375,0.048828,0.068359,0.044922
419943.0,9.445312,-2.382812,-0.957031,-0.078125,-0.023438,-0.105469,0.089844,0.068359,0.039062
419976.0,9.484375,-2.5,-0.691406,0.027344,-0.09375,0.269531,0.037109,0.0625,0.052734
419993.0,9.523438,-2.652344,-0.765625,0.027344,-0.167969,0.1875,0.041016,0.066406,0.041016
420016.0,9.605469,-2.421875,-0.84375,0.144531,0.007812,0.070312,0.035156,0.078125,0.037109
420033.0,9.527344,-2.460938,-0.84375,0.144531,0.015625,0.0625,0.027344,0.085938,0.037109
420053.0,9.417969,-2.5,-0.804688,-0.019531,-0.046875,0.085938,0.039062,0.095703,0.037109
420073.0,9.375,-2.304688,-0.765625,-0.054688,-0.046875,0.0625,0.017578,0.082031,0.041016
420093.0,9.523438,-2.691406,-0.652344,0.058594,0.007812,0.191406,0.005859,0.074219,0.046875
420126.0,9.488281,-2.613281,-0.652344,0.019531,-0.121094,0.128906,0.033203,0.076172,0.039062
420142.0,9.566406,-2.574219,-0.613281,0.105469,-0.152344,0.199219,0.044922,0.068359,0.033203
420165.0,9.484375,-2.460938,-0.574219,0.019531,0.0625,0.167969,0.041016,0.070312,0.037109
420182.0,9.488281,-2.421875,-0.574219,0.019531,0.109375,0.179688,0.003906,0.054688,0.029297
420197.0,9.488281,-2.535156,-0.539062,0.011719,-0.152344,0.082031,-0.013672,0.052734,0.03125
420213.0,9.484375,-2.765625,-0.613281,-0.027344,-0.21875,0.074219,-0.009766,0.050781,0.021484
420236.0,9.417969,-2.691406,-0.382812,-0.054688,-0.128906,0.28125,-0.011719,0.041016,0.017578
420253.0,9.417969,-2.691406,-0.382812,-0.054688,-0.128906,0.226562,-0.021484,0.029297,0.015625
420274.0,9.488281,-2.652344,-0.5,0.011719,-0.074219,0.125,-0.023438,0.027344,0.011719
420316.0,9.566406,-2.535156,-0.574219,0.097656,0.066406,0.027344,0.013672,0.019531,0.013672
420333.0,9.484375,-2.535156,-0.691406,0.097656,-0.050781,-0.136719,0.03125,0.023438,0.011719
420356.0,9.445312,-2.535156,-0.652344,-0.027344,0.074219,-0.074219,0.013672,0.025391,0.013672
420372.0,9.445312,-2.652344,-0.652344,-0.027344,-0.042969,-0.074219,0.019531,0.023438,0.019531
420393.0,9.484375,-2.574219,-0.539062,0.011719,0.003906,-0.042969,0.015625,0.027344,0.019531
420412.0,9.449219,-2.574219,-0.460938,0.011719,0.042969,0.03125,0.001953,0.019531,0.017578
420432.0,9.449219,-2.535156,-0.421875,-0.027344,0.011719,0.140625,0.007812,0.015625,0.023438
420465.0,9.488281,-2.613281,-0.539062,0.011719,0.011719,0.007812,0.019531,0.005859,0.03125
420505.0,9.484375,-2.691406,-0.539062,0.027344,-0.058594,0.0,0.015625,-0.003906,0.027344
420574.0,9.523438,-2.691406,-0.5,0.066406,-0.042969,0.03125,0.0,-0.003906,0.023438
420615.0,9.445312,-2.5,-0.613281,-0.011719,0.148438,-0.074219,-0.019531,0.003906,0.019531
420632.0,9.484375,-2.691406,-0.460938,-0.011719,0.113281,-0.035156,-0.03125,0.001953,0.023438
420654.0,9.417969,-2.691406,-0.539062,-0.046875,-0.042969,0.007812,-0.015625,0.001953,0.017578
420695.0,9.484375,-2.652344,-0.574219,0.027344,0.003906,-0.035156,-0.019531,0.003906,0.021484
420712.0,9.449219,-2.726562,-0.691406,0.027344,-0.109375,-0.144531,0.001953,0.013672,0.011719
420733.0,9.523438,-2.613281,-0.574219,-0.011719,0.082031,-0.105469,-0.011719,0.013672,0.013672
420752.0,9.445312,-2.652344,-0.5,0.058594,0.042969,-0.027344,-0.005859,0.011719,0.015625
420772.0,9.417969,-2.652344,-0.421875,0.019531,-0.027344,0.09375,0.001953,0.005859,0.013672
420792.0,9.523438,-2.613281,-0.421875,-0.054688,0.011719,0.132812,-0.011719,0.0,0.021484
420812.0,9.449219,-2.574219,-0.460938,-0.019531,0.050781,0.078125,-0.015625,-0.007812,0.021484
420845.0,9.417969,-2.652344,-0.691406,-0.054688,0.019531,-0.152344,-0.011719,-0.007812,0.021484
420862.0,9.488281,-2.652344,-0.652344,-0.011719,0.097656,-0.105469,-0.025391,-0.005859,0.019531
420885.0,9.445312,-2.804688,-0.691406,-0.011719,-0.140625,-0.144531,-0.023438,-0.003906,0.015625
420902.0,9.449219,-2.691406,-0.652344,-0.046875,-0.054688,-0.136719,-0.021484,0.005859,0.011719
420916.0,9.484375,-2.613281,-0.574219,0.027344,0.058594,0.054688,-0.037109,0.007812,0.013672
420932.0,9.445312,-2.917969,-0.460938,0.027344,-0.09375,0.09375,-0.042969,0.001953,0.013672
420955.0,9.378906,-2.726562,-0.574219,-0.078125,-0.039062,-0.011719,-0.011719,0.005859,0.003906
420972.0,9.445312,-2.613281,-0.460938,-0.039062,0.035156,0.0625,-0.033203,0.001953,0.007812
420994.0,9.484375,-2.804688,-0.539062,0.035156,-0.109375,0.015625,-0.027344,0.0,0.003906
421052.0,9.445312,-2.691406,-0.421875,-0.003906,0.050781,0.09375,0.011719,-0.011719,0.003906
421072.0,9.449219,-2.691406,-0.5,-0.003906,-0.023438,0.09375,0.021484,-0.019531,0.005859
421092.0,9.378906,-2.652344,-0.574219,-0.003906,0.019531,0.054688,0.009766,-0.019531,0.015625
421112.0,9.449219,-2.691406,-0.460938,-0.03125,0.058594,-0.019531,0.001953,-0.023438,0.015625
421132.0,9.488281,-2.726562,-0.460938,-0.003906,0.019531,0.09375,0.021484,-0.029297,0.009766
421152.0,9.484375,-2.574219,-0.613281,-0.003906,0.097656,0.015625,0.019531,-0.03125,0.011719
421185.0,9.449219,-2.765625,-0.652344,0.003906,-0.054688,-0.082031,0.009766,-0.029297,0.015625
421201.0,9.449219,-2.652344,-0.691406,-0.023438,-0.015625,-0.082031,-0.003906,-0.021484,0.007812
421225.0,9.417969,-2.726562,-0.691406,-0.023438,-0.015625,-0.113281,-0.019531,-0.019531,0.007812
421242.0,9.445312,-2.765625,-0.574219,-0.03125,-0.0625,-0.066406,-0.009766,-0.019531,0.005859
421256.0,9.488281,-2.726562,-0.539062,0.050781,0.019531,0.054688,-0.013672,-0.017578,0.007812
421271.0,9.523438,-2.691406,-0.5,0.050781,0.058594,0.054688,-0.023438,-0.015625,0.005859
421295.0,9.417969,-2.726562,-0.730469,-0.03125,-0.007812,-0.128906,-0.021484,-0.015625,0.003906
421312.0,9.414062,-2.765625,-0.765625,0.003906,-0.046875,-0.164062,-0.007812,-0.011719,0.001953
421335.0,9.488281,-2.652344,-0.652344,0.042969,0.058594,-0.035156,-0.021484,-0.007812,0.001953
421351.0,9.449219,-2.765625,-0.613281,0.003906,-0.015625,-0.035156,-0.025391,-0.007812,0.003906
421373.0,9.417969,-2.765625,-0.539062,-0.03125,-0.054688,0.085938,-0.021484,-0.007812,0.001953
421414.0,9.378906,-2.613281,-0.574219,-0.070312,0.105469,0.058594,-0.009766,-0.023438,0.009766
421432.0,9.414062,-2.726562,-0.652344,0.003906,0.035156,-0.019531,-0.019531,-0.025391,0.009766
421445.0,9.378906,-2.726562,-0.730469,-0.023438,-0.007812,-0.011719,-0.009766,-0.029297,0.009766
421462.0,9.488281,-2.765625,-0.574219,0.019531,0.0,0.027344,0.007812,-0.03125,0.009766
421484.0,9.488281,-2.691406,-0.730469,0.050781,0.035156,-0.082031,0.021484,-0.035156,0.011719
421524.0,9.417969,-2.882812,-0.691406,-0.015625,-0.148438,-0.035156,-0.003906,-0.03125,0.011719
421564.0,9.445312,-2.691406,-0.730469,0.011719,0.050781,-0.058594,0.011719,-0.021484,0.003906
421596.0,9.375,-2.765625,-0.765625,-0.0625,0.007812,-0.085938,0.013672,-0.017578,0.007812
421621.0,9.488281,-2.804688,-0.691406,-0.023438,0.042969,0.035156,0.011719,-0.019531,0.003906
421636.0,9.523438,-2.804688,-0.652344,-0.015625,0.007812,-0.003906,0.009766,-0.015625,0.001953
421652.0,9.449219,-2.613281,-0.765625,-0.015625,0.082031,-0.042969,-0.009766,-0.017578,0.007812
421673.0,9.445312,-2.804688,-0.691406,0.019531,-0.070312,0.003906,-0.013672,-0.015625,0.007812
421684.0,9.414062,-2.804688,-0.730469,-0.015625,-0.070312,-0.035156,0.001953,-0.011719,0.005859
421714.0,9.417969,-2.765625,-0.613281,-0.007812,-0.03125,0.097656,-0.001953,-0.017578,0.007812
421731.0,9.378906,-2.765625,-0.652344,-0.007812,-0.03125,0.058594,0.001953,-0.017578,0.009766
421754.0,9.445312,-2.804688,-0.804688,0.027344,-0.0625,-0.085938,0.0,-0.017578,0.003906
421771.0,9.449219,-2.726562,-0.691406,0.027344,0.015625,-0.011719,0.0,-0.019531,0.007812
421802.0,9.414062,-2.765625,-0.765625,0.027344,0.050781,-0.003906,-0.007812,-0.009766,0.003906
421824.0,9.414062,-2.765625,-0.730469,-0.007812,-0.023438,-0.003906,-0.005859,-0.009766,0.001953
421841.0,9.414062,-2.765625,-0.730469,-0.046875,-0.023438,-0.003906,0.0,-0.009766,0.001953
421864.0,9.417969,-2.726562,-0.691406,-0.007812,0.023438,0.042969,-0.003906,-0.005859,0.0
421904.0,9.414062,-2.691406,-0.804688,-0.007812,0.058594,-0.070312,-0.001953,-0.009766,0.003906
421921.0,9.417969,-2.726562,-0.691406,0.027344,0.058594,0.042969,-0.001953,-0.015625,0.007812
421936.0,9.417969,-2.804688,-0.652344,-0.046875,-0.023438,0.082031,0.009766,-0.019531,0.007812
421975.0,9.417969,-2.726562,-0.730469,-0.007812,0.015625,0.003906,0.003906,-0.015625,0.011719
421991.0,9.414062,-2.804688,-0.765625,0.027344,-0.015625,-0.03125,0.011719,-0.019531,0.007812
422014.0,9.449219,-2.726562,-0.804688,0.027344,0.023438,-0.0625,0.013672,-0.015625,0.005859
422031.0,9.417969,-2.726562,-0.804688,0.027344,0.058594,-0.0625,-0.007812,-0.013672,0.009766
422054.0,9.417969,-2.882812,-0.804688,0.0,-0.132812,-0.054688,0.001953,-0.005859,0.005859
422071.0,9.414062,-2.691406,-0.804688,-0.007812,-0.007812,-0.054688,0.001953,-0.001953,0.003906
422094.0,9.484375,-2.726562,-0.765625,0.066406,0.03125,-0.015625,-0.021484,0.0,0.007812
422111.0,9.417969,-2.84375,-0.804688,0.027344,-0.046875,-0.015625,-0.003906,0.003906,0.001953
422141.0,9.378906,-2.726562,-0.804688,-0.046875,0.03125,-0.046875,-0.015625,0.003906,0.0
422163.0,9.414062,-2.765625,-0.765625,-0.007812,-0.007812,-0.007812,-0.025391,0.005859,0.0
422181.0,9.445312,-2.765625,-0.691406,-0.007812,-0.046875,-0.007812,-0.011719,0.005859,0.0
422203.0,9.417969,-2.726562,-0.765625,-0.015625,0.03125,-0.007812,-0.003906,0.005859,-0.003906
422220.0,9.449219,-2.726562,-0.765625,-0.015625,0.03125,0.027344,-0.011719,0.007812,0.001953
422243.0,9.417969,-2.726562,-0.765625,-0.015625,0.03125,-0.007812,-0.015625,0.007812,0.001953
422261.0,9.414062,-2.765625,-0.691406,-0.015625,0.03125,0.066406,-0.035156,0.003906,0.005859
422283.0,9.449219,-2.84375,-0.691406,0.027344,-0.085938,0.066406,-0.023438,0.003906,0.001953
422314.0,9.414062,-2.691406,-0.730469,-0.007812,0.066406,0.027344,-0.001953,0.001953,0.001953
422330.0,9.375,-2.804688,-0.691406,-0.085938,-0.007812,0.019531,-0.017578,-0.003906,0.003906
422354.0,9.417969,-2.726562,-0.730469,0.0,0.03125,0.019531,-0.007812,-0.001953,0.005859
422370.0,9.445312,-2.691406,-0.765625,0.035156,0.066406,0.019531,-0.021484,-0.001953,0.005859
422394.0,9.414062,-2.765625,-0.730469,0.0,-0.007812,0.019531,-0.03125,-0.001953,0.003906
422410.0,9.449219,-2.882812,-0.804688,0.0,-0.085938,-0.015625,-0.017578,0.003906,-0.001953
422434.0,9.449219,-2.726562,-0.765625,0.027344,0.03125,-0.007812,-0.019531,0.005859,-0.003906
422451.0,9.339844,-2.84375,-0.730469,0.027344,-0.046875,-0.046875,-0.013672,0.001953,0.001953
422471.0,9.378906,-2.765625,-0.652344,-0.046875,-0.117188,0.019531,-0.001953,-0.001953,0.0
422490.0,9.449219,-2.652344,-0.730469,-0.046875,0.0,0.097656,-0.009766,-0.005859,-0.001953
422510.0,9.445312,-2.804688,-0.730469,0.027344,0.039062,0.058594,-0.009766,-0.009766,0.001953
422531.0,9.375,-2.804688,-0.730469,0.027344,-0.039062,0.019531,0.017578,-0.011719,-0.003906
422550.0,9.417969,-2.613281,-0.765625,0.027344,0.113281,0.066406,-0.015625,-0.011719,0.001953
422571.0,9.445312,-2.804688,-0.730469,-0.007812,0.152344,-0.007812,-0.03125,-0.013672,0.003906
422590.0,9.414062,-2.804688,-0.804688,-0.046875,-0.117188,-0.007812,-0.011719,-0.013672,-0.003906
422623.0,9.449219,-2.726562,-0.765625,0.027344,0.03125,0.0,0.001953,-0.013672,-0.001953
422654.0,9.417969,-2.882812,-0.730469,-0.007812,-0.117188,0.0,0.005859,-0.021484,0.0
422671.0,9.417969,-2.726562,-0.765625,-0.007812,0.0,-0.039062,0.011719,-0.019531,-0.001953
422692.0,9.417969,-2.726562,-0.804688,-0.007812,0.039062,-0.03125,0.001953,-0.021484,0.0
422703.0,9.445312,-2.804688,-0.804688,0.027344,-0.039062,-0.03125,-0.001953,-0.017578,0.001953
422732.0,9.378906,-2.765625,-0.84375,-0.039062,0.007812,-0.0625,0.001953,-0.017578,-0.001953
422773.0,9.449219,-2.804688,-0.84375,0.027344,-0.039062,-0.054688,0.007812,-0.009766,0.001953
422790.0,9.445312,-2.804688,-0.765625,-0.007812,-0.039062,0.058594,0.013672,-0.011719,-0.001953
422805.0,9.414062,-2.804688,-0.765625,-0.046875,0.0,-0.007812,0.019531,-0.013672,-0.003906
422820.0,9.414062,-2.691406,-0.804688,-0.046875,0.074219,-0.007812,0.003906,-0.011719,-0.003906
422843.0,9.414062,-2.765625,-0.765625,0.0,-0.007812,0.03125,0.001953,-0.015625,-0.003906
422860.0,9.488281,-2.804688,-0.765625,0.035156,-0.046875,0.03125,0.013672,-0.017578,-0.005859
422893.0,9.414062,-2.691406,-0.804688,0.0,0.066406,0.0,0.001953,-0.015625,0.0
422910.0,9.417969,-2.84375,-0.765625,0.035156,-0.039062,0.0,0.003906,-0.015625,-0.003906
422930.0,9.414062,-2.804688,-0.765625,-0.046875,0.0,0.082031,0.021484,-0.019531,-0.003906
422954.0,9.417969,-2.726562,-0.804688,0.0,0.03125,0.007812,0.019531,-0.023438,-0.001953
422970.0,9.417969,-2.804688,-0.84375,0.027344,-0.039062,-0.03125,0.019531,-0.019531,0.001953
422994.0,9.417969,-2.726562,-0.804688,0.0,0.03125,0.015625,0.019531,-0.021484,-0.001953
423010.0,9.417969,-2.804688,-0.84375,0.0,0.0,0.015625,0.017578,-0.021484,-0.007812
423032.0,9.445312,-2.726562,-0.882812,0.035156,0.03125,-0.054688,0.029297,-0.019531,-0.001953
423074.0,9.417969,-2.84375,-0.765625,0.0,-0.078125,0.070312,0.03125,-0.019531,-0.001953
423090.0,9.414062,-2.765625,-0.804688,0.0,-0.039062,0.03125,0.035156,-0.021484,-0.005859
423113.0,9.449219,-2.804688,-0.84375,0.035156,-0.039062,0.0,0.027344,-0.019531,-0.005859
423130.0,9.414062,-2.804688,-0.804688,0.0,-0.039062,0.03125,0.035156,-0.019531,-0.003906
423153.0,9.414062,-2.574219,-0.921875,0.0,0.191406,-0.078125,0.029297,-0.015625,-0.003906
423183.0,9.417969,-2.84375,-0.921875,0.0,-0.078125,-0.078125,0.011719,-0.013672,-0.001953
423200.0,9.378906,-2.804688,-0.882812,-0.078125,-0.078125,-0.039062,0.037109,-0.003906,-0.007812
423222.0,9.414062,-2.691406,-0.765625,0.0,0.066406,0.085938,0.023438,-0.005859,-0.003906
423262.0,9.414062,-2.726562,-0.882812,0.0,0.03125,-0.03125,0.003906,-0.009766,0.001953
423302.0,9.445312,-2.765625,-0.804688,0.042969,-0.007812,0.054688,-0.007812,-0.011719,0.007812
423320.0,9.417969,-2.804688,-0.84375,0.042969,-0.007812,0.015625,0.019531,-0.015625,0.003906
423335.0,9.378906,-2.765625,-0.84375,0.007812,0.066406,0.007812,0.017578,-0.015625,0.007812
423374.0,9.449219,-2.726562,-0.804688,0.035156,0.023438,0.054688,-0.007812,-0.011719,0.007812
423390.0,9.449219,-2.765625,-0.84375,0.035156,-0.015625,0.015625,0.001953,-0.011719,0.009766
423413.0,9.414062,-2.726562,-0.957031,0.0,0.03125,-0.089844,0.001953,-0.005859,0.007812
423430.0,9.417969,-2.804688,-0.882812,0.0,0.03125,-0.089844,0.003906,-0.005859,0.009766
423452.0,9.417969,-2.765625,-0.84375,0.0,-0.015625,0.03125,0.007812,-0.003906,0.007812
423493.0,9.375,-2.804688,-0.921875,-0.046875,-0.039062,-0.046875,-0.005859,0.003906,0.009766
423510.0,9.378906,-2.804688,-0.84375,-0.007812,-0.039062,-0.046875,0.007812,0.003906,0.007812
423524.0,9.378906,-2.804688,-0.84375,-0.007812,0.0,-0.046875,0.005859,0.005859,0.003906
423540.0,9.484375,-2.691406,-0.996094,0.027344,0.039062,-0.007812,-0.009766,0.011719,0.009766
423562.0,9.414062,-2.84375,-0.957031,-0.007812,-0.078125,-0.074219,-0.019531,0.011719,0.005859
423573.0,9.417969,-2.84375,-0.921875,-0.007812,-0.078125,-0.039062,-0.003906,0.013672,0.005859
423590.0,9.414062,-2.726562,-0.84375,-0.046875,0.0,0.0,-0.011719,0.015625,0.005859
423619.0,9.414062,-2.804688,-0.804688,-0.007812,0.039062,0.039062,-0.013672,0.015625,0.005859
423643.0,9.378906,-2.691406,-0.84375,-0.046875,0.074219,0.03125,-0.017578,0.017578,0.005859
423659.0,9.445312,-2.765625,-0.804688,-0.007812,0.074219,0.03125,-0.027344,0.011719,0.009766
423682.0,9.378906,-2.726562,-0.804688,-0.046875,0.046875,0.070312,-0.021484,0.011719,0.007812
423713.0,9.488281,-2.726562,-0.84375,0.066406,0.039062,0.023438,-0.056641,0.015625,0.003906
423730.0,9.488281,-2.917969,-0.84375,0.066406,-0.078125,0.023438,-0.039062,0.013672,0.001953
423753.0,9.417969,-2.726562,-0.921875,-0.007812,0.039062,-0.054688,-0.021484,0.025391,0.003906
423769.0,9.375,-2.765625,-0.804688,-0.085938,0.082031,0.054688,-0.044922,0.019531,0.009766
423792.0,9.445312,-2.917969,-0.882812,0.019531,-0.144531,-0.03125,-0.017578,0.019531,0.003906
423809.0,9.445312,-2.726562,-0.882812,0.019531,-0.03125,-0.070312,-0.025391,0.03125,-0.003906
423850.0,9.378906,-2.882812,-0.921875,0.019531,-0.109375,-0.039062,-0.03125,0.039062,-0.007812
423869.0,9.414062,-2.574219,-0.691406,0.019531,0.121094,0.070312,-0.064453,0.037109,-0.009766
423890.0,9.417969,-2.765625,-0.613281,0.019531,0.074219,0.144531,-0.080078,0.029297,-0.007812
423904.0,9.414062,-2.84375,-0.652344,-0.054688,-0.039062,0.136719,-0.066406,0.027344,-0.007812
423919.0,9.414062,-2.726562,-0.652344,-0.132812,0.074219,0.214844,-0.054688,0.013672,-0.001953
423942.0,9.378906,-2.726562,-0.804688,-0.054688,0.023438,0.007812,-0.058594,0.007812,0.003906
423959.0,9.414062,-2.882812,-0.882812,-0.046875,-0.085938,0.007812,-0.046875,0.003906,0.003906
423983.0,9.339844,-2.691406,-0.84375,-0.085938,0.066406,-0.03125,-0.037109,0.007812,-0.001953
423999.0,9.335938,-2.804688,-0.765625,-0.085938,0.066406,0.007812,-0.042969,-0.003906,0.0
424014.0,9.335938,-2.804688,-0.691406,0.0,-0.078125,0.039062,-0.015625,-0.007812,0.001953
424052.0,9.378906,-2.804688,-0.882812,-0.039062,-0.046875,-0.078125,0.007812,-0.011719,0.013672
424070.0,9.296875,-2.804688,-0.84375,-0.03125,-0.039062,-0.078125,0.027344,-0.011719,0.015625
424090.0,9.378906,-2.84375,-0.804688,-0.023438,-0.070312,0.0,0.035156,-0.011719,0.011719
424133.0,9.378906,-2.691406,-0.882812,-0.023438,0.089844,-0.070312,0.048828,-0.017578,0.011719
424149.0,9.445312,-2.765625,-0.921875,0.015625,0.015625,-0.109375,0.042969,-0.015625,0.009766
424172.0,9.414062,-2.804688,-0.921875,0.023438,-0.015625,-0.101562,0.037109,-0.005859,0.013672
424189.0,9.417969,-2.957031,-0.921875,0.058594,-0.128906,-0.0625,0.046875,-0.001953,0.009766
424212.0,9.296875,-2.804688,-0.84375,-0.09375,-0.007812,-0.015625,0.03125,0.0,0.009766
424229.0,9.378906,-2.765625,-0.84375,-0.015625,-0.007812,-0.007812,0.023438,0.001953,0.007812
424259.0,9.488281,-2.804688,-0.804688,0.058594,0.03125,-0.007812,0.017578,-0.005859,0.003906
424282.0,9.445312,-2.726562,-0.882812,0.050781,0.078125,-0.054688,0.029297,0.005859,0.003906
424299.0,9.375,-2.726562,-0.882812,0.050781,0.152344,-0.09375,0.003906,0.005859,0.003906
424321.0,9.417969,-2.917969,-0.804688,0.015625,-0.113281,0.03125,0.003906,0.0,0.005859
424361.0,9.414062,-2.765625,-0.804688,0.007812,0.039062,0.023438,0.003906,0.005859,0.001953
424379.0,9.414062,-2.765625,-0.804688,-0.03125,0.078125,0.023438,-0.019531,0.007812,-0.005859
424393.0,9.449219,-2.765625,-0.84375,0.007812,0.03125,-0.015625,-0.021484,0.013672,-0.005859
424409.0,9.417969,-2.804688,-0.84375,0.007812,-0.046875,-0.054688,-0.009766,0.007812,-0.003906
424432.0,9.300781,-2.765625,-0.765625,-0.109375,0.03125,0.0625,-0.003906,0.007812,-0.003906
424449.0,9.414062,-2.804688,-0.691406,-0.070312,0.03125,0.0625,-0.011719,0.003906,-0.001953
424471.0,9.445312,-2.691406,-0.804688,0.042969,0.097656,0.023438,-0.005859,0.0,-0.003906
424512.0,9.417969,-2.917969,-0.804688,0.0,-0.136719,0.015625,-0.03125,0.003906,-0.003906
424529.0,9.445312,-2.804688,-0.804688,0.0,-0.101562,0.015625,-0.017578,0.013672,-0.011719
424551.0,9.449219,-2.84375,-0.765625,0.035156,-0.0625,0.054688,-0.037109,0.003906,-0.007812
424582.0,9.378906,-2.652344,-0.730469,-0.046875,0.128906,0.082031,-0.001953,0.005859,-0.009766
424598.0,9.375,-2.765625,-0.804688,-0.046875,0.089844,0.007812,-0.033203,-0.005859,0.0
424621.0,9.335938,-2.804688,-0.765625,-0.078125,-0.03125,0.046875,-0.027344,-0.001953,-0.005859
424661.0,9.445312,-2.765625,-0.804688,0.035156,0.015625,0.007812,-0.021484,0.0,-0.007812
424679.0,9.445312,-2.882812,-0.84375,0.0,0.015625,0.007812,-0.013672,0.0,-0.001953
424701.0,9.414062,-2.726562,-0.882812,0.0,0.054688,-0.0625,0.005859,0.001953,-0.007812
424718.0,9.378906,-2.765625,-0.84375,0.0,0.054688,-0.0625,0.0,0.005859,0.001953
424733.0,9.300781,-2.84375,-0.84375,-0.078125,-0.0625,-0.03125,0.0,0.003906,0.001953
424745.0,9.339844,-2.765625,-0.84375,-0.078125,-0.0625,-0.03125,0.011719,0.001953,-0.007812
424773.0,9.488281,-2.765625,-0.804688,0.074219,0.015625,0.015625,0.021484,-0.005859,-0.003906
424788.0,9.417969,-2.726562,-0.804688,0.035156,0.015625,0.015625,0.013672,0.0,-0.001953
424812.0,9.417969,-2.804688,-0.84375,0.0,-0.023438,-0.023438,0.011719,-0.003906,-0.001953
424828.0,9.449219,-2.765625,-0.84375,0.007812,0.015625,-0.0625,0.013672,0.001953,-0.005859
424852.0,9.417969,-2.765625,-0.84375,0.0,0.015625,-0.023438,0.013672,0.0,-0.003906
424868.0,9.445312,-2.804688,-0.765625,0.0,-0.023438,-0.023438,0.019531,0.0,-0.001953
424883.0,9.417969,-2.765625,-0.84375,-0.039062,0.054688,0.015625,0.015625,0.001953,-0.007812
424898.0,9.449219,-2.765625,-0.84375,0.0,0.054688,0.054688,0.009766,-0.003906,-0.003906
424921.0,9.417969,-2.804688,-0.84375,0.0,-0.03125,-0.03125,0.017578,-0.001953,0.0
424931.0,9.417969,-2.765625,-0.84375,0.0,0.007812,-0.023438,0.03125,0.003906,-0.009766
424948.0,9.414062,-2.726562,-0.84375,0.0,0.046875,0.015625,0.017578,0.0,-0.001953
424963.0,9.417969,-2.804688,-0.84375,0.0,-0.03125,-0.03125,0.019531,0.001953,-0.005859
424978.0,9.414062,-2.804688,-0.804688,0.0,-0.03125,0.007812,0.025391,-0.001953,-0.003906
425001.0,9.378906,-2.84375,-0.765625,-0.039062,-0.078125,0.046875,0.03125,-0.001953,-0.003906
425041.0,9.417969,-2.765625,-0.84375,0.0,0.0,-0.03125,0.03125,-0.001953,-0.003906
425073.0,9.417969,-2.691406,-0.84375,0.0,0.082031,-0.03125,0.041016,0.003906,-0.007812
425113.0,9.417969,-2.84375,-0.765625,0.0,-0.078125,0.046875,0.013672,0.011719,-0.005859
425128.0,9.417969,-2.726562,-0.730469,-0.039062,0.0,0.046875,0.013672,0.007812,-0.007812
425150.0,9.414062,-2.765625,-0.730469,-0.007812,0.0,0.074219,0.001953,0.005859,-0.009766
425190.0,9.417969,-2.726562,-0.804688,-0.007812,0.023438,-0.007812,0.003906,0.007812,-0.007812
425231.0,9.414062,-2.765625,-0.691406,-0.007812,-0.015625,0.105469,0.021484,0.0,-0.009766
425248.0,9.445312,-2.765625,-0.730469,0.027344,-0.015625,0.097656,0.003906,0.0,-0.003906
425268.0,9.414062,-2.691406,-0.804688,-0.007812,0.058594,-0.054688,-0.009766,0.005859,-0.005859
425288.0,9.445312,-2.765625,-0.804688,-0.007812,0.058594,-0.015625,-0.009766,0.001953,-0.003906
425302.0,9.445312,-2.804688,-0.765625,-0.007812,-0.054688,0.023438,0.003906,0.0,-0.007812
425317.0,9.417969,-2.726562,-0.804688,0.027344,0.023438,0.050781,0.015625,-0.003906,-0.003906
425340.0,9.417969,-2.652344,-0.730469,-0.007812,0.089844,0.050781,0.013672,0.0,-0.003906
425380.0,9.414062,-2.726562,-0.84375,-0.007812,0.023438,-0.0625,0.009766,-0.005859,-0.003906
425398.0,9.445312,-2.726562,-0.84375,-0.007812,0.015625,-0.0625,0.009766,-0.003906,-0.003906
425420.0,9.335938,-2.691406,-0.730469,-0.085938,0.050781,0.050781,0.005859,-0.001953,-0.003906
425451.0,9.375,-2.691406,-0.730469,-0.046875,0.050781,0.050781,0.019531,-0.009766,-0.001953
425468.0,9.445312,-2.765625,-0.765625,-0.039062,0.015625,-0.023438,0.013672,-0.011719,0.001953
425491.0,9.417969,-2.726562,-0.765625,-0.007812,0.015625,0.015625,0.027344,-0.011719,-0.001953
425508.0,9.414062,-2.691406,-0.804688,-0.007812,0.015625,-0.023438,0.019531,-0.013672,0.0
425531.0,9.414062,-2.765625,-0.804688,-0.007812,-0.03125,-0.023438,0.023438,-0.013672,0.003906
425549.0,9.414062,-2.765625,-0.730469,0.0,0.015625,-0.023438,0.015625,-0.009766,0.001953
425570.0,9.414062,-2.691406,-0.804688,0.0,0.050781,-0.023438,0.021484,-0.009766,0.003906
425640.0,9.414062,-2.691406,-0.765625,-0.015625,0.042969,0.03125,0.011719,-0.009766,0.0
425651.0,9.417969,-2.726562,-0.730469,-0.015625,0.007812,0.066406,0.0,-0.011719,0.001953
425680.0,9.378906,-2.726562,-0.804688,-0.046875,0.015625,-0.007812,0.011719,-0.009766,0.001953
425697.0,9.417969,-2.804688,-0.882812,-0.046875,0.023438,-0.085938,0.009766,-0.009766,0.001953
425721.0,9.417969,-2.726562,-0.765625,-0.007812,0.023438,0.039062,0.0,-0.007812,0.007812
425737.0,9.449219,-2.726562,-0.804688,-0.007812,0.023438,0.039062,-0.001953,-0.009766,0.007812
425760.0,9.445312,-2.652344,-0.882812,0.027344,0.097656,-0.070312,0.0,-0.007812,0.005859
425777.0,9.445312,-2.765625,-0.765625,-0.007812,0.023438,-0.03125,-0.009766,-0.009766,0.007812
425792.0,9.445312,-2.804688,-0.765625,-0.007812,-0.09375,0.046875,-0.003906,-0.011719,0.007812
425831.0,9.417969,-2.765625,-0.84375,-0.007812,-0.015625,-0.023438,-0.011719,-0.007812,0.003906
425847.0,9.414062,-2.765625,-0.804688,-0.007812,-0.054688,0.015625,0.003906,-0.005859,0.005859
425871.0,9.445312,-2.691406,-0.921875,0.027344,0.058594,-0.101562,0.0,-0.005859,0.007812
425888.0,9.449219,-2.726562,-0.921875,0.066406,0.023438,-0.136719,-0.011719,0.0,0.007812
425910.0,9.417969,-2.882812,-0.765625,-0.007812,-0.132812,0.070312,-0.001953,0.001953,0.009766
425927.0,9.417969,-2.726562,-0.765625,-0.046875,-0.054688,0.03125,-0.015625,0.007812,0.001953
425950.0,9.445312,-2.917969,-0.84375,0.019531,-0.160156,-0.007812,-0.013672,0.003906,0.007812
425968.0,9.449219,-2.535156,-0.574219,0.027344,-0.046875,0.175781,-0.033203,-0.005859,0.0
425998.0,9.378906,-2.652344,-0.730469,-0.09375,0.066406,0.0625,-0.013672,-0.019531,0.0
426020.0,9.375,-2.804688,-0.804688,-0.039062,-0.054688,0.023438,-0.019531,-0.021484,0.007812
426037.0,9.375,-2.726562,-0.84375,-0.039062,0.023438,0.0625,-0.039062,-0.027344,0.013672
426060.0,9.417969,-2.804688,-0.957031,0.0,-0.046875,-0.128906,-0.021484,-0.027344,0.013672
426100.0,9.375,-2.84375,-0.957031,-0.03125,-0.085938,-0.121094,-0.039062,-0.013672,0.013672
426117.0,9.414062,-2.882812,-0.996094,0.007812,-0.125,-0.144531,-0.023438,-0.005859,0.009766
426132.0,9.414062,-2.84375,-0.996094,0.042969,0.03125,-0.105469,-0.021484,0.0,0.005859
426171.0,9.375,-2.84375,-0.84375,-0.03125,-0.078125,0.023438,0.0,0.003906,0.013672
426187.0,9.414062,-2.726562,-0.84375,0.042969,-0.078125,-0.015625,0.007812,0.005859,0.011719
426209.0,9.417969,-2.726562,-0.921875,0.015625,0.046875,-0.046875,-0.007812,0.001953,0.011719
426250.0,9.417969,-2.84375,-0.804688,0.015625,-0.0625,0.078125,-0.013672,0.003906,0.009766
426267.0,9.414062,-2.765625,-0.804688,0.015625,-0.023438,0.039062,-0.001953,0.003906,0.013672
426289.0,9.417969,-2.652344,-0.730469,0.007812,0.136719,0.144531,0.0,0.007812,0.007812
426320.0,9.414062,-2.726562,-0.84375,0.007812,0.0625,0.023438,-0.009766,-0.003906,0.007812
426338.0,9.417969,-2.765625,-0.882812,0.007812,0.0625,0.070312,-0.009766,-0.005859,0.011719
426360.0,9.378906,-2.765625,-0.882812,-0.03125,0.015625,-0.015625,-0.013672,-0.009766,0.013672
426377.0,9.417969,-2.84375,-0.804688,0.007812,-0.023438,-0.007812,-0.037109,0.0,0.009766
426400.0,9.484375,-2.84375,-0.804688,0.082031,-0.054688,0.070312,-0.027344,-0.001953,0.003906
426416.0,9.414062,-2.726562,-0.996094,0.082031,-0.054688,-0.046875,-0.03125,0.005859,0.003906
426439.0,9.375,-2.84375,-0.84375,-0.03125,-0.054688,0.03125,-0.037109,0.005859,0.001953
426479.0,9.417969,-2.765625,-0.84375,0.007812,0.03125,0.03125,-0.017578,0.0,0.009766
426510.0,9.417969,-2.765625,-0.882812,0.007812,0.03125,-0.007812,-0.042969,-0.005859,0.011719
426527.0,9.445312,-2.765625,-0.921875,0.015625,-0.007812,-0.046875,-0.058594,0.0,0.007812
426550.0,9.449219,-2.804688,-0.957031,0.050781,0.0,-0.074219,-0.050781,0.005859,0.009766
426567.0,9.378906,-2.804688,-0.996094,0.050781,0.039062,-0.074219,-0.048828,0.007812,0.013672
426590.0,9.414062,-2.957031,-0.957031,0.015625,-0.160156,-0.066406,-0.03125,0.007812,0.009766
426607.0,9.375,-2.84375,-0.84375,0.015625,-0.160156,-0.023438,-0.017578,0.011719,0.005859
426629.0,9.375,-2.84375,-0.882812,-0.03125,-0.03125,0.007812,-0.019531,0.011719,0.007812
426647.0,9.378906,-2.804688,-0.84375,-0.03125,-0.03125,-0.03125,-0.019531,0.011719,0.007812
426667.0,9.339844,-2.882812,-0.804688,-0.0625,0.007812,0.054688,0.003906,0.001953,0.003906
426687.0,9.339844,-2.84375,-0.804688,-0.0625,-0.070312,0.09375,0.021484,-0.003906,0.0
426706.0,9.445312,-2.804688,-0.921875,0.058594,0.015625,0.046875,0.009766,-0.003906,0.005859
426727.0,9.414062,-2.804688,-0.921875,0.058594,0.015625,-0.03125,0.011719,-0.007812,0.003906
426747.0,9.378906,-2.882812,-0.921875,-0.015625,-0.097656,-0.03125,0.029297,-0.005859,0.005859
426779.0,9.375,-2.804688,-0.921875,-0.015625,0.023438,-0.03125,0.033203,-0.003906,0.001953
426821.0,9.414062,-2.84375,-0.84375,0.023438,-0.007812,0.046875,0.027344,0.0,-0.001953
426851.0,9.378906,-2.804688,-0.882812,-0.015625,0.070312,0.007812,0.025391,0.001953,-0.001953
426866.0,9.417969,-2.804688,-0.882812,0.023438,0.03125,-0.03125,0.027344,0.005859,-0.003906
426888.0,9.375,-2.804688,-0.804688,-0.015625,0.03125,0.085938,0.021484,0.001953,-0.001953
426928.0,9.417969,-2.765625,-0.882812,0.023438,0.0625,0.0,0.015625,0.001953,-0.005859
426970.0,9.417969,-2.804688,-0.84375,0.023438,0.023438,0.039062,0.009766,-0.003906,-0.003906
426987.0,9.414062,-2.84375,-0.84375,-0.015625,0.023438,0.039062,0.009766,-0.001953,-0.003906
427001.0,9.414062,-2.84375,-0.882812,0.023438,0.054688,0.0,0.011719,0.001953,-0.003906
427017.0,9.445312,-2.765625,-0.921875,0.015625,0.09375,0.03125,0.0,-0.001953,-0.001953
427039.0,9.378906,-2.804688,-0.882812,-0.023438,0.015625,-0.007812,0.001953,-0.001953,0.0
427056.0,9.417969,-2.804688,-0.882812,0.015625,0.015625,0.03125,-0.009766,0.0,-0.003906
427079.0,9.378906,-2.804688,-0.882812,-0.03125,0.007812,0.0,-0.007812,0.0,-0.003906
427096.0,9.378906,-2.804688,-0.882812,-0.070312,0.046875,0.0,-0.015625,0.001953,-0.005859
427119.0,9.378906,-2.84375,-0.804688,-0.023438,-0.039062,0.070312,-0.013672,0.0,-0.001953
427136.0,9.417969,-2.765625,-0.84375,0.015625,0.0,0.070312,-0.003906,-0.005859,-0.001953
427151.0,9.445312,-2.765625,-0.921875,0.015625,0.039062,-0.046875,-0.009766,-0.003906,-0.001953
427167.0,9.414062,-2.804688,-0.921875,-0.023438,0.0,-0.082031,-0.013672,-0.003906,-0.001953
427191.0,9.414062,-2.84375,-0.882812,0.015625,-0.039062,0.03125,-0.001953,-0.003906,0.001953
427206.0,9.414062,-2.84375,-0.882812,0.015625,-0.039062,0.039062,0.003906,-0.001953,-0.003906
427230.0,9.378906,-2.804688,-0.882812,-0.023438,0.0,0.0,-0.021484,0.0,-0.007812
427246.0,9.414062,-2.917969,-0.882812,-0.023438,-0.085938,0.0,-0.007812,-0.003906,-0.005859
427270.0,9.378906,-2.726562,-0.804688,-0.03125,0.078125,0.070312,-0.003906,-0.003906,-0.007812
427286.0,9.375,-2.84375,-0.84375,-0.023438,0.078125,-0.007812,-0.013672,-0.009766,-0.001953
427310.0,9.375,-2.804688,-0.804688,-0.023438,0.0,0.078125,0.001953,-0.009766,-0.003906
427326.0,9.417969,-2.765625,-0.882812,0.015625,0.0,0.039062,0.011719,-0.013672,-0.001953
427341.0,9.449219,-2.765625,-0.882812,0.015625,0.039062,-0.039062,0.017578,-0.015625,0.0
427357.0,9.417969,-2.765625,-0.957031,0.050781,0.0,-0.074219,0.019531,-0.015625,0.0
427379.0,9.414062,-2.84375,-0.882812,0.015625,-0.039062,0.007812,0.015625,-0.015625,0.0
427395.0,9.414062,-2.84375,-0.882812,0.015625,-0.039062,0.007812,0.017578,-0.011719,-0.001953
427419.0,9.375,-2.804688,-0.921875,-0.023438,0.0,-0.03125,0.015625,-0.015625,0.001953
427429.0,9.414062,-2.765625,-0.804688,0.015625,0.039062,0.085938,0.025391,-0.017578,-0.003906
427446.0,9.449219,-2.84375,-0.921875,-0.023438,0.0,0.007812,0.044922,-0.019531,-0.003906
427466.0,9.414062,-2.726562,-0.957031,0.015625,0.039062,-0.097656,0.037109,-0.015625,-0.001953
427498.0,9.414062,-2.84375,-0.882812,0.007812,-0.046875,0.015625,0.017578,-0.009766,-0.001953
427516.0,9.414062,-2.882812,-0.882812,-0.03125,-0.121094,-0.058594,0.03125,-0.011719,-0.005859
427530.0,9.378906,-2.765625,-0.882812,0.007812,0.144531,0.0625,0.025391,-0.007812,-0.009766
427546.0,9.449219,-2.804688,-0.882812,0.007812,0.113281,0.0625,0.003906,-0.013672,-0.001953
427568.0,9.378906,-2.765625,-0.882812,-0.03125,0.039062,0.023438,0.013672,-0.011719,0.0
427578.0,9.339844,-2.726562,-0.921875,-0.070312,0.070312,-0.015625,0.03125,-0.009766,-0.003906
427609.0,9.335938,-2.804688,-0.921875,-0.0625,-0.015625,-0.007812,0.003906,-0.015625,0.0
427635.0,9.449219,-2.84375,-0.921875,0.015625,-0.128906,-0.007812,0.021484,-0.015625,-0.007812
427656.0,9.449219,-2.765625,-1.035156,0.089844,-0.015625,-0.121094,0.011719,-0.005859,-0.007812
427689.0,9.375,-2.917969,-0.957031,-0.03125,-0.121094,-0.035156,0.001953,0.005859,-0.011719
427706.0,9.417969,-2.804688,-0.957031,-0.03125,-0.09375,-0.035156,0.001953,0.011719,-0.015625
427726.0,9.449219,-2.804688,-0.996094,0.042969,0.03125,-0.066406,-0.005859,0.013672,-0.013672
427746.0,9.445312,-2.84375,-0.957031,0.042969,-0.007812,-0.066406,0.0,0.019531,-0.013672
427760.0,9.449219,-2.765625,-0.957031,0.0,0.070312,-0.027344,-0.003906,0.023438,-0.013672
427776.0,9.375,-2.726562,-0.882812,-0.039062,0.144531,0.007812,-0.009766,0.019531,-0.013672
427798.0,9.375,-2.765625,-0.730469,-0.046875,0.015625,0.199219,-0.003906,0.015625,-0.013672
427838.0,9.375,-2.691406,-0.804688,-0.039062,0.082031,0.101562,0.0,-0.009766,-0.001953
427870.0,9.417969,-2.765625,-0.882812,-0.03125,0.046875,0.023438,0.013672,-0.019531,0.003906
427886.0,9.417969,-2.691406,-0.84375,-0.03125,0.113281,-0.015625,0.013672,-0.027344,0.007812
427910.0,9.375,-2.726562,-0.84375,-0.023438,0.039062,0.0625,0.001953,-0.035156,0.011719
427925.0,9.417969,-2.765625,-0.84375,0.015625,0.074219,0.0625,-0.011719,-0.033203,0.009766
427949.0,9.375,-2.84375,-0.996094,-0.023438,-0.078125,-0.082031,-0.013672,-0.03125,0.007812
427965.0,9.417969,-2.804688,-1.035156,0.015625,-0.078125,-0.121094,-0.011719,-0.025391,0.003906
427987.0,9.414062,-2.882812,-1.113281,0.015625,-0.117188,-0.191406,-0.013672,-0.019531,0.005859
428029.0,9.445312,-2.917969,-1.113281,0.050781,-0.144531,-0.175781,0.0,0.011719,-0.015625
428045.0,9.375,-2.882812,-1.035156,0.050781,-0.109375,-0.097656,-0.003906,0.019531,-0.021484
428061.0,9.375,-2.84375,-0.996094,0.050781,-0.03125,-0.011719,-0.007812,0.025391,-0.019531
428098.0,9.417969,-2.765625,-0.84375,0.007812,0.015625,0.101562,0.015625,0.023438,-0.019531
428115.0,9.414062,-2.574219,-0.921875,-0.03125,0.128906,0.0625,0.011719,0.019531,-0.011719
428138.0,9.339844,-2.804688,-0.84375,-0.078125,-0.03125,0.101562,0.003906,0.013672,-0.011719
428155.0,9.339844,-2.84375,-0.730469,-0.078125,-0.070312,0.179688,0.054688,-0.005859,-0.007812
428178.0,9.414062,-2.613281,-0.882812,0.007812,0.160156,0.046875,0.060547,-0.003906,-0.005859
428218.0,9.378906,-2.691406,-0.957031,-0.03125,0.082031,-0.035156,0.0625,-0.015625,0.0
428249.0,9.339844,-2.691406,-0.957031,0.015625,0.0,0.03125,0.019531,-0.015625,0.003906
428265.0,9.417969,-2.765625,-0.882812,0.015625,0.039062,-0.007812,-0.007812,-0.009766,-0.001953
428289.0,9.417969,-2.804688,-1.035156,0.015625,-0.039062,-0.113281,-0.001953,-0.007812,-0.001953
428305.0,9.417969,-2.765625,-0.996094,0.015625,-0.039062,-0.121094,-0.009766,0.001953,-0.003906
428329.0,9.445312,-2.882812,-0.957031,0.050781,-0.125,-0.035156,-0.025391,0.007812,-0.003906
428345.0,9.445312,-2.882812,-1.035156,0.050781,-0.152344,-0.105469,-0.023438,0.015625,-0.011719
428368.0,9.449219,-2.84375,-0.921875,0.042969,-0.085938,0.007812,-0.03125,0.023438,-0.013672
428386.0,9.449219,-2.882812,-0.921875,0.042969,-0.117188,0.007812,-0.015625,0.019531,-0.017578
428400.0,9.449219,-2.84375,-0.921875,0.007812,-0.007812,0.007812,-0.011719,0.027344,-0.021484
428415.0,9.414062,-2.765625,-0.921875,0.0,0.039062,0.039062,-0.015625,0.021484,-0.019531
428438.0,9.375,-2.726562,-0.882812,-0.039062,0.039062,0.039062,-0.005859,0.019531,-0.019531
428448.0,9.375,-2.652344,-0.882812,-0.039062,0.113281,0.039062,0.001953,0.019531,-0.017578
428478.0,9.375,-2.691406,-0.730469,-0.046875,0.066406,0.183594,0.011719,0.011719,-0.015625
428495.0,9.375,-2.691406,-0.804688,-0.046875,0.023438,0.183594,0.025391,-0.003906,-0.011719
428518.0,9.445312,-2.652344,-0.84375,0.035156,0.089844,0.0625,0.023438,-0.009766,-0.009766
428558.0,9.417969,-2.726562,-0.921875,0.0,0.015625,-0.023438,0.025391,-0.015625,-0.003906
428575.0,9.449219,-2.691406,-0.996094,-0.007812,0.007812,-0.03125,0.019531,-0.011719,-0.003906
428590.0,9.449219,-2.691406,-1.035156,0.027344,0.007812,-0.136719,0.011719,-0.011719,-0.007812
428605.0,9.417969,-2.804688,-0.957031,0.027344,0.007812,-0.136719,0.005859,-0.005859,-0.003906
428629.0,9.414062,-2.804688,-0.921875,-0.007812,-0.070312,-0.023438,0.013672,-0.001953,-0.009766
428645.0,9.414062,-2.691406,-0.921875,-0.039062,0.007812,-0.015625,-0.001953,0.005859,-0.009766
428667.0,9.414062,-2.84375,-0.882812,-0.007812,-0.109375,0.015625,-0.011719,0.007812,-0.007812
428708.0,9.445312,-2.652344,-0.882812,0.027344,0.082031,0.015625,-0.011719,0.005859,-0.009766
428726.0,9.414062,-2.726562,-0.882812,0.035156,0.042969,0.023438,-0.011719,0.001953,-0.007812
428739.0,9.378906,-2.726562,-0.804688,-0.046875,-0.070312,0.09375,0.001953,0.001953,-0.005859
428755.0,9.414062,-2.726562,-0.882812,-0.007812,-0.078125,0.054688,0.019531,-0.005859,-0.003906
428778.0,9.445312,-2.691406,-0.921875,0.027344,0.035156,-0.023438,0.009766,-0.003906,-0.005859
428794.0,9.375,-2.726562,-0.882812,-0.007812,0.0,-0.058594,0.011719,-0.005859,-0.003906
428818.0,9.375,-2.691406,-0.921875,-0.046875,0.035156,-0.023438,0.035156,-0.005859,-0.001953
428835.0,9.445312,-2.613281,-0.957031,0.027344,0.113281,-0.058594,0.013672,-0.007812,0.0
428857.0,9.445312,-2.84375,-0.957031,0.027344,-0.117188,-0.058594,0.009766,-0.005859,0.003906
428874.0,9.378906,-2.691406,-0.957031,-0.046875,-0.039062,-0.023438,0.023438,-0.003906,0.0
428897.0,9.445312,-2.652344,-0.957031,0.027344,0.074219,-0.050781,0.019531,0.001953,0.0
428929.0,9.378906,-2.691406,-0.882812,-0.007812,-0.039062,0.023438,-0.001953,0.005859,0.003906
428945.0,9.414062,-2.765625,-0.921875,-0.007812,-0.078125,-0.050781,0.015625,0.005859,0.001953
428968.0,9.445312,-2.691406,-0.921875,0.027344,0.027344,-0.015625,-0.001953,0.009766,0.003906
428985.0,9.378906,-2.765625,-0.882812,-0.046875,-0.046875,0.023438,-0.003906,0.005859,0.005859
429008.0,9.414062,-2.613281,-0.882812,-0.007812,0.113281,0.023438,0.0,0.009766,0.003906
429025.0,9.449219,-2.613281,-0.921875,0.027344,0.113281,0.023438,-0.009766,0.003906,0.007812
429048.0,9.414062,-2.804688,-0.921875,-0.007812,-0.085938,-0.015625,0.007812,0.007812,0.007812
429064.0,9.417969,-2.691406,-0.957031,-0.046875,-0.046875,0.023438,0.007812,0.007812,0.009766
429087.0,9.445312,-2.652344,-0.882812,0.027344,0.066406,0.015625,-0.011719,0.011719,0.011719
429105.0,9.417969,-2.804688,-0.84375,0.027344,-0.046875,-0.023438,0.001953,0.009766,0.009766
429125.0,9.414062,-2.652344,-0.882812,-0.007812,0.035156,0.015625,-0.007812,0.011719,0.009766
429144.0,9.417969,-2.726562,-0.921875,-0.007812,0.074219,0.015625,-0.023438,0.011719,0.007812
429174.0,9.417969,-2.652344,-0.921875,0.027344,-0.039062,-0.023438,-0.03125,0.019531,0.007812
429197.0,9.414062,-2.726562,-0.882812,-0.007812,-0.007812,0.015625,-0.03125,0.015625,0.005859
429214.0,9.417969,-2.726562,-0.921875,0.027344,-0.039062,-0.023438,-0.025391,0.017578,0.003906
429237.0,9.414062,-2.726562,-0.882812,-0.007812,0.0,0.007812,-0.035156,0.017578,0.003906
429254.0,9.445312,-2.765625,-0.804688,-0.007812,-0.039062,0.007812,-0.054688,0.023438,0.001953
429269.0,9.414062,-2.84375,-0.84375,0.027344,-0.078125,0.046875,-0.054688,0.019531,0.001953
429308.0,9.375,-2.691406,-0.921875,-0.046875,0.035156,-0.039062,-0.042969,0.023438,-0.001953
429324.0,9.417969,-2.765625,-0.882812,-0.046875,0.074219,-0.046875,-0.064453,0.019531,0.001953
429348.0,9.449219,-2.882812,-0.804688,0.027344,-0.15625,0.078125,-0.03125,0.019531,-0.003906
429365.0,9.417969,-2.691406,-0.882812,0.019531,-0.078125,0.039062,-0.035156,0.027344,-0.001953
429386.0,9.449219,-2.804688,-0.84375,0.019531,-0.070312,0.03125,-0.039062,0.025391,-0.003906
429427.0,9.375,-2.765625,-0.691406,-0.046875,-0.03125,0.175781,-0.015625,0.007812,0.0
429444.0,9.449219,-2.726562,-0.765625,0.027344,-0.03125,0.054688,-0.017578,0.005859,0.003906
429474.0,9.449219,-2.804688,-0.882812,0.027344,0.007812,-0.03125,-0.007812,0.001953,0.007812
429497.0,9.414062,-2.726562,-0.84375,-0.007812,0.015625,0.007812,-0.001953,-0.001953,0.009766
429514.0,9.414062,-2.765625,-0.804688,-0.007812,-0.023438,0.046875,0.011719,-0.003906,0.009766
429537.0,9.378906,-2.765625,-0.84375,-0.039062,-0.015625,0.007812,0.013672,0.0,0.005859
429577.0,9.375,-2.765625,-0.765625,-0.046875,-0.015625,0.078125,0.017578,-0.011719,0.009766
429617.0,9.445312,-2.765625,-0.921875,0.035156,-0.007812,-0.078125,0.025391,-0.015625,0.007812
429655.0,9.414062,-2.726562,-0.84375,0.035156,-0.007812,-0.039062,0.015625,-0.009766,0.009766
429688.0,9.417969,-2.84375,-0.804688,0.0,-0.085938,0.039062,0.013672,-0.009766,0.007812
429704.0,9.445312,-2.726562,-0.957031,0.0,-0.046875,-0.070312,0.015625,-0.003906,0.005859
429726.0,9.417969,-2.804688,-0.882812,0.0,-0.039062,-0.039062,0.007812,0.0,0.001953
429767.0,9.445312,-2.652344,-0.882812,0.035156,0.113281,-0.03125,0.009766,0.003906,0.001953
429784.0,9.414062,-2.765625,-0.804688,0.035156,0.074219,-0.03125,0.009766,-0.003906,0.003906
429804.0,9.375,-2.726562,-0.84375,-0.039062,-0.085938,0.015625,0.015625,0.001953,0.0
429824.0,9.445312,-2.652344,-0.882812,0.0,0.144531,-0.03125,-0.011719,0.0,0.001953
429844.0,9.414062,-2.84375,-0.84375,0.035156,-0.046875,-0.023438,-0.003906,-0.001953,0.0
429864.0,9.417969,-2.765625,-0.84375,0.0,-0.085938,0.015625,0.007812,0.001953,-0.001953
429883.0,9.417969,-2.691406,-0.882812,0.0,0.066406,-0.070312,0.0,0.003906,-0.001953
429905.0,9.375,-2.84375,-0.882812,0.0,0.066406,-0.03125,-0.005859,0.001953,0.0
429923.0,9.414062,-2.765625,-0.804688,-0.039062,-0.046875,0.007812,0.001953,-0.003906,-0.003906
429953.0,9.417969,-2.765625,-0.882812,0.035156,-0.007812,-0.023438,-0.001953,0.0,0.0
429974.0,9.378906,-2.804688,-0.84375,-0.039062,-0.007812,0.015625,-0.001953,0.0,-0.001953
429988.0,9.375,-2.84375,-0.882812,-0.039062,-0.046875,-0.023438,0.007812,0.001953,-0.001953
430003.0,9.445312,-2.652344,-0.882812,0.0,0.074219,-0.015625,-0.001953,0.005859,-0.001953
430027.0,9.378906,-2.84375,-0.804688,-0.039062,-0.085938,0.054688,-0.001953,0.001953,-0.003906
430044.0,9.378906,-2.691406,-0.84375,-0.078125,-0.046875,0.015625,-0.005859,0.0,-0.001953
430067.0,9.484375,-2.765625,-0.84375,0.082031,-0.007812,0.015625,-0.005859,-0.003906,0.003906
430083.0,9.414062,-2.84375,-0.882812,0.042969,-0.085938,-0.023438,0.015625,0.0,-0.001953
430107.0,9.378906,-2.726562,-0.921875,-0.03125,0.023438,-0.0625,0.023438,-0.005859,-0.003906
430124.0,9.414062,-2.726562,-0.882812,0.007812,0.03125,-0.023438,0.019531,-0.005859,-0.001953
430176.0,9.414062,-2.613281,-0.882812,0.007812,0.144531,-0.023438,0.021484,0.003906,-0.001953
430193.0,9.417969,-2.765625,-0.84375,0.007812,0.105469,0.015625,0.003906,0.0,0.005859
430217.0,9.414062,-2.765625,-0.804688,0.007812,-0.015625,0.054688,0.019531,0.001953,0.0
430234.0,9.414062,-2.765625,-0.804688,0.007812,-0.015625,0.046875,0.023438,-0.001953,-0.001953
430256.0,9.378906,-2.691406,-0.84375,-0.03125,0.058594,0.007812,0.015625,-0.001953,0.001953
430296.0,9.449219,-2.765625,-0.84375,0.035156,-0.007812,0.015625,0.001953,-0.005859,0.001953
430313.0,9.414062,-2.726562,-0.882812,0.0,0.03125,0.015625,0.0,-0.003906,0.0
430328.0,9.414062,-2.726562,-0.957031,0.0,0.03125,-0.023438,0.003906,-0.005859,0.001953
430343.0,9.449219,-2.804688,-0.882812,0.0,0.03125,0.015625,0.009766,0.0,0.003906
430365.0,9.445312,-2.765625,-0.804688,0.035156,-0.015625,0.046875,0.015625,-0.003906,-0.001953
430407.0,9.378906,-2.804688,-0.882812,-0.039062,-0.046875,-0.023438,-0.001953,0.0,-0.001953
430423.0,9.417969,-2.804688,-0.882812,0.0,-0.046875,-0.0625,0.003906,0.003906,-0.001953
430446.0,9.375,-2.765625,-0.765625,-0.039062,-0.007812,0.09375,0.0,0.001953,-0.001953
430463.0,9.414062,-2.765625,-0.804688,0.0,-0.007812,0.046875,0.001953,0.001953,-0.003906
430478.0,9.414062,-2.726562,-0.882812,0.0,0.097656,0.007812,0.009766,0.001953,-0.003906
430493.0,9.449219,-2.726562,-0.921875,0.035156,0.058594,-0.03125,0.007812,0.001953,0.0
430516.0,9.445312,-2.726562,-0.882812,0.035156,0.023438,-0.03125,0.011719,0.003906,-0.001953
430534.0,9.375,-2.726562,-0.882812,-0.007812,-0.015625,0.007812,0.007812,0.003906,0.0
430556.0,9.378906,-2.804688,-0.882812,-0.046875,-0.054688,-0.03125,-0.001953,0.001953,-0.001953
430573.0,9.414062,-2.765625,-0.804688,-0.046875,-0.015625,0.046875,-0.011719,0.003906,-0.001953
430597.0,9.417969,-2.726562,-0.765625,-0.007812,0.023438,0.085938,-0.009766,0.0,-0.001953
430613.0,9.445312,-2.726562,-0.882812,-0.007812,0.058594,0.046875,-0.007812,0.0,-0.001953
430636.0,9.417969,-2.726562,-0.921875,-0.007812,0.023438,-0.070312,0.0,-0.003906,-0.001953
430667.0,9.417969,-2.726562,-0.804688,-0.007812,0.058594,0.121094,0.007812,0.001953,0.0
430683.0,9.414062,-2.691406,-0.730469,-0.046875,0.097656,0.121094,-0.007812,-0.005859,0.003906
430705.0,9.417969,-2.765625,-0.84375,-0.007812,-0.015625,0.007812,-0.009766,-0.009766,0.0
430723.0,9.449219,-2.765625,-0.84375,0.027344,0.023438,0.007812,-0.001953,-0.007812,0.001953
430746.0,9.335938,-2.726562,-0.84375,-0.085938,0.015625,0.0,0.011719,-0.011719,0.005859
430763.0,9.339844,-2.765625,-0.882812,-0.039062,0.015625,-0.039062,0.017578,-0.019531,0.003906
430786.0,9.445312,-2.765625,-0.804688,0.035156,-0.023438,0.046875,0.003906,-0.017578,0.007812
430803.0,9.445312,-2.691406,-0.804688,-0.039062,0.015625,0.007812,-0.001953,-0.021484,0.007812
430826.0,9.378906,-2.804688,-0.996094,-0.03125,-0.054688,-0.136719,0.007812,-0.019531,0.007812
430843.0,9.378906,-2.765625,-0.957031,-0.070312,0.058594,-0.097656,-0.015625,-0.011719,0.003906
430863.0,9.484375,-2.882812,-0.921875,0.042969,-0.132812,-0.0625,-0.015625,-0.007812,0.003906
430884.0,9.445312,-2.726562,-0.957031,0.082031,-0.132812,-0.054688,-0.013672,0.003906,-0.003906
430903.0,9.449219,-2.917969,-1.074219,0.082031,-0.007812,-0.160156,-0.017578,0.013672,-0.005859
430923.0,9.414062,-2.84375,-0.957031,0.035156,-0.160156,-0.199219,0.001953,0.019531,-0.009766
430943.0,9.449219,-2.804688,-0.882812,0.035156,-0.007812,-0.007812,-0.007812,0.023438,-0.013672
430975.0,9.378906,-2.765625,-0.84375,-0.046875,0.0,0.039062,0.015625,0.023438,-0.011719
431008.0,9.378906,-2.613281,-0.691406,-0.046875,0.113281,0.222656,0.009766,0.013672,-0.005859
431047.0,9.375,-2.691406,-0.691406,-0.046875,0.066406,0.175781,0.013672,-0.007812,0.003906
431063.0,9.414062,-2.652344,-0.652344,-0.046875,0.066406,0.207031,-0.007812,-0.017578,0.007812
431086.0,9.378906,-2.652344,-0.691406,-0.046875,0.097656,0.167969,-0.019531,-0.03125,0.013672
431103.0,9.414062,-2.765625,-0.691406,-0.046875,0.050781,0.238281,-0.009766,-0.042969,0.017578
431125.0,9.378906,-2.652344,-0.765625,-0.03125,0.089844,0.085938,-0.001953,-0.044922,0.015625
431145.0,9.378906,-2.726562,-0.804688,-0.039062,0.015625,0.046875,-0.019531,-0.058594,0.023438
431173.0,9.417969,-2.765625,-0.882812,-0.070312,-0.015625,0.007812,-0.035156,-0.070312,0.021484
431196.0,9.414062,-2.804688,-1.074219,0.015625,-0.054688,-0.207031,-0.035156,-0.066406,0.017578
431213.0,9.378906,-2.726562,-1.148438,-0.023438,0.023438,-0.238281,-0.048828,-0.050781,0.021484
431236.0,9.445312,-2.917969,-1.226562,0.058594,-0.160156,-0.320312,-0.042969,-0.039062,0.013672
431252.0,9.445312,-2.917969,-1.226562,0.097656,-0.199219,-0.273438,-0.011719,-0.015625,0.003906
431275.0,9.488281,-2.882812,-1.1875,0.089844,-0.117188,-0.242188,-0.015625,-0.007812,-0.001953
431292.0,9.375,-2.957031,-1.1875,0.042969,-0.109375,-0.203125,-0.021484,0.015625,-0.009766
431315.0,9.445312,-2.84375,-0.996094,0.042969,-0.0625,-0.035156,-0.005859,0.023438,-0.015625
431332.0,9.449219,-2.804688,-0.996094,0.082031,-0.0625,-0.105469,0.003906,0.035156,-0.019531
431355.0,9.378906,-2.804688,-0.957031,-0.039062,-0.015625,0.011719,0.019531,0.03125,-0.015625
431372.0,9.417969,-2.691406,-0.882812,0.0,0.015625,0.085938,0.039062,0.029297,-0.015625
431387.0,9.375,-2.652344,-0.84375,-0.078125,0.167969,0.164062,0.039062,0.023438,-0.011719
431402.0,9.378906,-2.652344,-0.691406,-0.078125,0.167969,0.203125,0.035156,0.005859,-0.001953
431426.0,9.339844,-2.652344,-0.691406,-0.078125,0.121094,0.261719,0.046875,-0.009766,0.001953
431442.0,9.417969,-2.613281,-0.730469,-0.03125,0.160156,0.222656,0.041016,-0.027344,0.009766
431465.0,9.378906,-2.652344,-0.730469,-0.03125,0.113281,0.207031,0.009766,-0.039062,0.019531
431482.0,9.378906,-2.726562,-0.765625,0.042969,0.105469,0.171875,-0.001953,-0.046875,0.021484
431505.0,9.449219,-2.804688,-0.84375,0.050781,-0.039062,0.085938,0.011719,-0.056641,0.015625
431522.0,9.417969,-2.691406,-0.996094,0.015625,0.039062,0.007812,0.0,-0.052734,0.013672
431537.0,9.375,-2.613281,-0.957031,-0.023438,0.03125,-0.097656,-0.023438,-0.056641,0.021484
431553.0,9.339844,-2.917969,-1.074219,-0.023438,-0.117188,-0.136719,-0.019531,-0.052734,0.021484
431575.0,9.375,-2.726562,-1.035156,-0.007812,0.039062,-0.082031,-0.019531,-0.050781,0.015625
431592.0,9.445312,-2.84375,-1.113281,0.03125,-0.078125,-0.074219,-0.058594,-0.042969,0.019531
431615.0,9.488281,-3.148438,-1.265625,0.097656,-0.375,-0.28125,-0.056641,-0.041016,0.011719
431633.0,9.484375,-3.074219,-1.378906,0.097656,-0.292969,-0.386719,-0.037109,0.003906,-0.007812
431655.0,9.445312,-3.035156,-1.417969,0.058594,-0.246094,-0.402344,-0.050781,0.017578,-0.011719
431672.0,9.417969,-2.996094,-1.148438,-0.023438,-0.238281,-0.25,-0.005859,0.046875,-0.023438
431695.0,9.414062,-2.652344,-0.996094,0.015625,0.152344,0.035156,0.001953,0.054688,-0.023438
431726.0,9.375,-2.765625,-0.804688,-0.070312,0.121094,0.265625,0.013672,0.041016,-0.019531
431742.0,9.378906,-2.613281,-0.691406,-0.03125,0.191406,0.332031,0.025391,0.023438,-0.015625
431765.0,9.375,-2.652344,-0.652344,-0.03125,0.144531,0.355469,0.035156,0.0,0.0
431782.0,9.375,-2.691406,-0.691406,-0.03125,0.183594,0.347656,0.046875,-0.023438,0.003906
431805.0,9.417969,-2.613281,-0.730469,0.015625,0.175781,0.246094,0.042969,-0.041016,0.013672
431822.0,9.335938,-2.691406,-0.765625,-0.070312,0.136719,0.171875,0.027344,-0.054688,0.021484
431846.0,9.414062,-2.84375,-0.882812,0.015625,-0.0625,0.085938,0.039062,-0.0625,0.017578
431863.0,9.375,-2.652344,-1.035156,-0.023438,0.089844,0.003906,0.013672,-0.0625,0.021484
431878.0,9.417969,-2.691406,-1.113281,0.023438,-0.0625,-0.179688,-0.001953,-0.058594,0.019531
431902.0,9.417969,-2.84375,-1.074219,-0.054688,-0.0625,-0.105469,-0.019531,-0.044922,0.013672
431922.0,9.414062,-2.996094,-1.113281,0.03125,-0.136719,-0.089844,0.001953,-0.048828,0.011719
431942.0,9.417969,-2.765625,-1.226562,0.03125,-0.214844,-0.128906,-0.013672,-0.033203,0.007812
431956.0,9.417969,-2.804688,-1.226562,0.066406,-0.09375,-0.257812,-0.023438,-0.023438,0.005859
431994.0,9.417969,-2.804688,-1.226562,0.03125,-0.007812,-0.195312,-0.007812,-0.001953,-0.007812
432012.0,9.414062,-2.765625,-1.074219,0.03125,0.03125,-0.074219,-0.007812,0.003906,-0.009766
432035.0,9.375,-2.84375,-0.957031,-0.015625,-0.039062,0.089844,0.013672,0.003906,-0.011719
432052.0,9.378906,-2.691406,-0.996094,0.023438,0.0,0.058594,0.007812,0.001953,-0.011719
432066.0,9.375,-2.652344,-0.996094,-0.023438,0.152344,-0.019531,0.0,0.001953,-0.013672
432082.0,9.375,-2.726562,-0.996094,0.015625,0.113281,-0.058594,0.0,-0.003906,-0.011719
432104.0,9.335938,-2.765625,-0.921875,-0.054688,0.023438,0.132812,0.011719,-0.007812,-0.011719
432114.0,9.335938,-2.726562,-0.957031,-0.054688,0.0625,0.097656,0.023438,-0.009766,-0.007812
432143.0,9.378906,-2.804688,-1.035156,-0.023438,-0.015625,0.019531,0.005859,-0.015625,-0.007812
432185.0,9.417969,-2.726562,-1.074219,0.023438,0.054688,-0.019531,0.011719,-0.009766,-0.001953
432202.0,9.414062,-2.765625,-1.074219,0.058594,0.054688,-0.019531,-0.003906,-0.007812,-0.001953
432225.0,9.378906,-2.84375,-1.074219,-0.015625,-0.070312,-0.011719,0.005859,-0.005859,-0.003906
432242.0,9.417969,-2.726562,-1.148438,-0.015625,-0.03125,-0.050781,-0.003906,0.001953,-0.003906
432272.0,9.375,-2.84375,-1.113281,0.023438,-0.03125,-0.125,-0.005859,0.007812,-0.003906
432294.0,9.414062,-2.882812,-0.996094,0.023438,-0.109375,0.066406,-0.007812,0.005859,-0.009766
432312.0,9.417969,-2.726562,-1.074219,0.023438,0.007812,0.027344,-0.003906,0.007812,-0.013672
432334.0,9.339844,-2.726562,-1.074219,-0.054688,0.039062,-0.011719,-0.023438,0.013672,-0.009766
432351.0,9.375,-2.84375,-1.113281,0.023438,-0.039062,-0.042969,-0.007812,0.015625,-0.009766
432374.0,9.417969,-2.691406,-0.957031,0.015625,0.066406,0.105469,-0.009766,0.013672,-0.009766
432406.0,9.375,-2.726562,-1.035156,-0.023438,0.023438,0.019531,0.001953,0.011719,-0.005859
432421.0,9.417969,-2.804688,-0.996094,-0.023438,-0.015625,0.019531,0.003906,0.005859,-0.009766
432446.0,9.414062,-2.691406,-1.148438,0.015625,0.066406,-0.101562,0.007812,0.007812,-0.011719
432461.0,9.414062,-2.691406,-1.148438,0.050781,0.105469,-0.027344,-0.011719,0.015625,-0.009766
432485.0,9.375,-2.882812,-1.035156,-0.023438,-0.132812,0.011719,0.015625,0.017578,-0.007812
432525.0,9.449219,-2.765625,-1.035156,0.050781,-0.015625,0.003906,-0.005859,0.019531,-0.007812
432541.0,9.375,-2.765625,-0.921875,-0.023438,-0.054688,0.082031,0.007812,0.017578,-0.005859
432564.0,9.449219,-2.765625,-1.035156,0.042969,-0.023438,-0.011719,0.011719,0.013672,-0.005859
432581.0,9.339844,-2.691406,-0.957031,-0.03125,0.050781,-0.011719,-0.001953,0.009766,-0.003906
432601.0,9.339844,-2.765625,-0.957031,-0.03125,-0.054688,0.066406,0.007812,0.007812,0.0
432621.0,9.378906,-2.765625,-0.882812,-0.070312,-0.015625,0.066406,0.007812,0.001953,-0.001953
432636.0,9.445312,-2.726562,-0.957031,0.089844,0.007812,-0.066406,0.013672,0.003906,-0.003906
432651.0,9.414062,-2.652344,-1.113281,0.015625,0.082031,-0.066406,-0.001953,0.001953,-0.001953
432674.0,9.339844,-2.882812,-1.074219,-0.0625,-0.148438,-0.066406,-0.003906,0.007812,0.0
432690.0,9.375,-2.726562,-1.035156,-0.0625,-0.109375,-0.027344,0.013672,0.011719,-0.005859
432714.0,9.449219,-2.691406,-0.957031,0.050781,0.042969,0.042969,-0.003906,0.013672,-0.003906
432730.0,9.378906,-2.765625,-0.996094,0.015625,-0.0625,-0.066406,-0.007812,0.013672,-0.005859
432755.0,9.375,-2.804688,-1.148438,-0.023438,-0.0625,-0.140625,0.013672,0.017578,-0.007812
432785.0,9.417969,-2.882812,-1.074219,0.015625,-0.148438,-0.074219,0.007812,0.019531,-0.009766
432801.0,9.414062,-2.691406,-1.074219,-0.023438,-0.0625,-0.074219,0.025391,0.027344,-0.011719
432824.0,9.445312,-2.613281,-0.996094,0.050781,0.121094,-0.003906,0.0,0.029297,-0.007812
432841.0,9.417969,-2.691406,-0.882812,0.015625,0.082031,0.0625,-0.005859,0.03125,-0.003906
432881.0,9.484375,-2.613281,-0.921875,0.015625,0.082031,0.054688,0.001953,0.019531,-0.001953
432905.0,9.414062,-2.765625,-0.921875,0.0,-0.039062,0.046875,-0.001953,0.007812,0.001953
432921.0,9.417969,-2.804688,-0.882812,-0.039062,-0.117188,0.085938,0.035156,0.009766,-0.003906
432944.0,9.414062,-2.613281,-1.035156,0.0,0.121094,-0.082031,0.015625,0.007812,-0.001953
432961.0,9.417969,-2.691406,-0.996094,0.0,0.113281,-0.121094,-0.001953,0.009766,0.0
432991.0,9.375,-2.726562,-0.882812,-0.039062,-0.117188,0.03125,0.03125,0.009766,0.001953
433013.0,9.445312,-2.613281,-0.996094,0.035156,0.121094,-0.050781,0.013672,0.011719,0.001953
433053.0,9.417969,-2.691406,-0.957031,0.007812,0.035156,-0.011719,0.009766,0.017578,0.001953
433071.0,9.527344,-2.765625,-0.921875,0.035156,-0.039062,0.023438,0.007812,0.027344,0.001953
433094.0,9.414062,-2.726562,-0.957031,0.0,0.0,-0.019531,0.013672,0.023438,0.001953
433111.0,9.417969,-2.652344,-0.921875,-0.039062,0.035156,0.054688,0.003906,0.021484,0.003906
433125.0,9.449219,-2.726562,-0.921875,-0.039062,0.0,0.046875,0.001953,0.017578,0.007812
433140.0,9.375,-2.804688,-0.765625,-0.039062,-0.039062,0.078125,0.015625,0.011719,0.001953
433181.0,9.445312,-2.652344,-0.882812,0.042969,0.074219,0.03125,-0.007812,0.005859,0.007812
433205.0,9.414062,-2.804688,-0.921875,0.007812,-0.070312,-0.015625,0.007812,0.0,0.007812
433221.0,9.375,-2.652344,-0.84375,0.042969,0.007812,0.023438,0.013672,0.0,0.007812
433244.0,9.414062,-2.726562,-0.996094,0.0,0.007812,-0.097656,0.001953,0.005859,0.007812
433261.0,9.335938,-2.765625,-0.921875,0.0,0.007812,-0.058594,-0.003906,0.003906,0.007812
433275.0,9.417969,-2.804688,-0.882812,-0.03125,-0.070312,0.015625,0.005859,0.001953,0.007812
433301.0,9.449219,-2.726562,-0.921875,-0.039062,0.042969,-0.023438,-0.005859,0.003906,0.007812
433321.0,9.449219,-2.765625,-0.84375,0.007812,0.007812,-0.023438,-0.015625,0.003906,0.009766
433341.0,9.417969,-2.765625,-0.957031,0.042969,-0.023438,0.054688,0.001953,0.005859,0.001953
433361.0,9.449219,-2.804688,-1.035156,0.042969,0.050781,-0.050781,-0.007812,0.009766,0.001953
433394.0,9.375,-2.804688,-0.921875,-0.03125,-0.0625,-0.023438,-0.013672,0.011719,0.001953
433411.0,9.449219,-2.765625,-0.882812,0.007812,-0.101562,0.015625,-0.011719,0.011719,-0.001953
433433.0,9.375,-2.613281,-0.957031,-0.039062,0.136719,-0.050781,-0.017578,0.017578,-0.001953
433465.0,9.417969,-2.917969,-0.921875,-0.039062,-0.132812,0.015625,0.0,0.017578,-0.003906
433502.0,9.414062,-2.726562,-0.882812,0.0,0.023438,0.023438,-0.021484,0.015625,-0.001953
433544.0,9.488281,-2.652344,-0.957031,0.074219,0.097656,-0.058594,-0.017578,0.009766,-0.005859
433560.0,9.445312,-2.613281,-0.996094,0.074219,0.136719,-0.058594,-0.042969,0.015625,-0.001953
433582.0,9.375,-2.765625,-0.921875,-0.039062,-0.03125,-0.023438,-0.056641,0.019531,-0.001953
433623.0,9.449219,-2.804688,-0.84375,0.027344,-0.085938,0.054688,-0.0625,0.017578,-0.005859
433654.0,9.375,-2.882812,-0.957031,-0.054688,-0.15625,-0.058594,-0.0625,0.017578,-0.011719
433670.0,9.378906,-2.765625,-0.882812,-0.054688,-0.117188,-0.023438,-0.03125,0.013672,-0.013672
433693.0,9.414062,-2.765625,-0.921875,-0.015625,-0.03125,-0.023438,-0.033203,0.011719,-0.013672
433710.0,9.378906,-2.765625,-0.957031,-0.015625,-0.039062,-0.058594,-0.009766,0.015625,-0.005859
433734.0,9.417969,-2.804688,-0.84375,-0.007812,-0.078125,0.054688,-0.007812,0.007812,-0.003906
433750.0,9.375,-2.765625,-0.804688,-0.007812,-0.070312,0.160156,0.009766,0.001953,0.001953
433773.0,9.414062,-2.691406,-0.921875,-0.007812,0.042969,-0.03125,0.009766,0.003906,0.003906
433813.0,9.417969,-2.652344,-0.804688,0.0,0.089844,0.078125,0.019531,-0.007812,0.007812
433830.0,9.414062,-2.726562,-0.84375,0.035156,0.050781,0.039062,0.019531,-0.015625,0.007812
433845.0,9.414062,-2.726562,-0.882812,0.035156,0.050781,-0.039062,0.025391,-0.015625,0.007812
433884.0,9.378906,-2.726562,-0.921875,-0.046875,0.015625,-0.039062,-0.007812,-0.003906,0.001953
433900.0,9.378906,-2.804688,-0.882812,-0.039062,-0.070312,0.039062,-0.011719,0.003906,-0.003906
433922.0,9.417969,-2.691406,-0.957031,0.0,0.042969,-0.074219,-0.015625,0.001953,-0.001953
433963.0,9.375,-2.652344,-0.882812,-0.039062,0.082031,0.015625,-0.044922,0.011719,0.001953
433980.0,9.375,-2.917969,-0.882812,-0.046875,-0.070312,0.054688,-0.013672,0.001953,-0.007812
434010.0,9.445312,-2.691406,-0.921875,-0.007812,0.007812,-0.023438,-0.005859,0.007812,-0.003906
434033.0,9.414062,-2.804688,-0.765625,-0.007812,-0.078125,0.132812,-0.019531,0.0,0.001953
434050.0,9.449219,-2.765625,-0.882812,-0.046875,-0.15625,0.054688,0.015625,-0.005859,-0.001953
434073.0,9.445312,-2.652344,-0.996094,0.035156,0.082031,-0.097656,-0.001953,-0.001953,0.0
434091.0,9.335938,-2.84375,-0.882812,0.0,-0.03125,-0.097656,0.011719,-0.003906,0.003906
434112.0,9.335938,-2.691406,-0.765625,-0.078125,0.050781,0.132812,0.03125,-0.005859,0.003906
434152.0,9.417969,-2.691406,-0.84375,0.007812,0.050781,0.046875,0.054688,-0.029297,0.011719
434184.0,9.484375,-2.691406,-1.035156,0.042969,0.058594,-0.105469,0.050781,-0.027344,0.011719
434200.0,9.417969,-2.804688,-0.84375,0.042969,0.058594,-0.03125,0.068359,-0.029297,0.013672
434223.0,9.378906,-2.691406,-0.882812,-0.03125,0.058594,0.007812,0.078125,-0.027344,0.013672
434240.0,9.417969,-2.691406,-0.882812,0.007812,0.144531,-0.066406,0.03125,-0.029297,0.015625
434264.0,9.414062,-2.84375,-0.84375,0.007812,-0.09375,0.054688,0.033203,-0.03125,0.011719
434281.0,9.417969,-2.691406,-0.957031,0.007812,-0.007812,0.023438,0.023438,-0.021484,0.005859
434302.0,9.449219,-2.765625,-1.035156,0.042969,-0.007812,-0.128906,0.015625,-0.021484,0.003906
434342.0,9.378906,-2.917969,-0.921875,-0.03125,-0.160156,-0.015625,0.015625,-0.011719,0.001953
434373.0,9.378906,-2.726562,-0.921875,-0.03125,0.039062,0.0,0.003906,-0.005859,0.001953
434390.0,9.417969,-2.765625,-0.957031,-0.03125,-0.039062,0.0,-0.001953,-0.005859,0.001953
434412.0,9.414062,-2.652344,-0.957031,0.007812,0.113281,-0.027344,0.001953,-0.001953,0.001953
434453.0,9.378906,-2.726562,-0.921875,-0.03125,0.03125,0.007812,0.013672,-0.009766,0.005859
434469.0,9.414062,-2.726562,-0.996094,-0.023438,0.066406,0.046875,-0.005859,-0.007812,0.009766
434492.0,9.414062,-2.726562,-0.84375,0.015625,0.03125,0.085938,-0.009766,-0.007812,0.001953
434510.0,9.375,-2.882812,-0.84375,-0.023438,-0.085938,0.085938,0.017578,-0.013672,0.003906
434524.0,9.378906,-2.84375,-0.921875,0.015625,0.03125,-0.019531,0.023438,-0.009766,0.003906
434540.0,9.449219,-2.691406,-1.035156,0.015625,0.105469,-0.097656,-0.013672,0.0,0.007812
434564.0,9.417969,-2.882812,-0.921875,0.015625,-0.117188,0.015625,-0.001953,0.0,0.007812
434579.0,9.417969,-2.804688,-0.882812,-0.03125,-0.117188,0.054688,0.007812,-0.003906,0.001953
434601.0,9.445312,-2.613281,-0.996094,0.042969,0.152344,-0.058594,-0.007812,0.0,0.003906
434641.0,9.378906,-2.84375,-0.921875,-0.03125,-0.085938,0.023438,-0.023438,0.003906,0.001953
434682.0,9.417969,-2.804688,-0.882812,0.007812,-0.046875,0.054688,-0.025391,-0.007812,0.001953
434699.0,9.417969,-2.765625,-1.035156,0.007812,-0.046875,-0.011719,-0.007812,-0.003906,0.001953
434714.0,9.414062,-2.726562,-1.113281,0.042969,0.03125,-0.167969,0.001953,0.003906,-0.001953
434729.0,9.417969,-2.882812,-1.074219,0.042969,-0.054688,-0.121094,0.025391,-0.005859,0.001953
434753.0,9.339844,-2.765625,-0.882812,-0.078125,-0.007812,0.070312,0.060547,0.007812,0.001953
434769.0,9.296875,-2.765625,-0.882812,-0.117188,-0.007812,0.03125,0.044922,0.0,0.007812
434792.0,9.414062,-2.652344,-0.882812,0.007812,0.121094,0.054688,0.042969,-0.003906,0.009766
434809.0,9.378906,-2.652344,-0.804688,-0.03125,0.121094,0.054688,0.015625,-0.005859,0.009766
434832.0,9.449219,-2.765625,-0.957031,0.042969,0.007812,-0.011719,0.025391,-0.009766,0.011719
434849.0,9.449219,-2.613281,-0.921875,0.082031,0.082031,0.015625,0.0,-0.003906,0.011719
434872.0,9.414062,-2.917969,-0.996094,0.007812,-0.144531,-0.058594,-0.015625,-0.003906,0.015625
434889.0,9.375,-2.917969,-0.957031,-0.03125,-0.183594,-0.058594,-0.019531,0.005859,0.013672
434903.0,9.378906,-2.804688,-0.996094,-0.03125,0.046875,-0.050781,-0.023438,0.011719,0.011719
434920.0,9.339844,-2.613281,-0.921875,-0.03125,0.160156,0.023438,-0.072266,0.013672,0.015625
434943.0,9.417969,-2.882812,-0.921875,0.015625,-0.109375,0.023438,-0.052734,0.009766,0.017578
434959.0,9.414062,-2.652344,-0.957031,0.015625,0.007812,-0.011719,-0.037109,0.011719,0.015625
434983.0,9.417969,-2.765625,-0.996094,0.015625,0.007812,-0.042969,-0.074219,0.013672,0.023438
435000.0,9.339844,-2.882812,-0.921875,-0.0625,-0.109375,-0.011719,-0.066406,0.013672,0.021484
435020.0,9.445312,-2.882812,-1.035156,0.058594,-0.101562,-0.082031,-0.058594,0.011719,0.013672
435053.0,9.414062,-2.957031,-0.996094,0.023438,-0.167969,-0.042969,-0.044922,0.011719,0.013672
435069.0,9.378906,-2.84375,-0.921875,-0.023438,-0.207031,0.03125,-0.011719,0.011719,0.013672
435093.0,9.414062,-2.726562,-0.957031,0.015625,0.070312,-0.003906,-0.025391,0.009766,0.015625
435109.0,9.414062,-2.84375,-0.882812,0.050781,0.03125,0.03125,-0.033203,0.001953,0.015625
435132.0,9.375,-2.996094,-0.84375,-0.015625,-0.183594,0.109375,0.003906,0.0,0.005859
435148.0,9.378906,-2.726562,-0.921875,-0.015625,-0.070312,0.03125,-0.001953,0.0,0.005859
435172.0,9.375,-2.917969,-0.996094,-0.015625,-0.097656,-0.050781,-0.009766,-0.005859,0.003906
435188.0,9.335938,-2.957031,-0.882812,-0.054688,-0.136719,-0.011719,0.025391,-0.005859,-0.001953
435212.0,9.417969,-2.726562,-0.921875,0.015625,0.101562,0.023438,0.029297,-0.011719,-0.001953
435229.0,9.417969,-2.804688,-0.957031,0.015625,0.09375,-0.011719,0.013672,-0.015625,-0.001953
435243.0,9.375,-2.84375,-0.882812,0.023438,-0.082031,0.101562,0.021484,-0.017578,-0.001953
435259.0,9.417969,-2.917969,-0.921875,-0.054688,-0.160156,0.0625,0.029297,-0.019531,-0.007812
435281.0,9.378906,-2.691406,-0.996094,-0.015625,0.144531,-0.058594,0.025391,-0.013672,-0.009766
435291.0,9.375,-2.84375,-1.035156,-0.015625,-0.007812,-0.097656,0.011719,-0.019531,-0.009766
435322.0,9.417969,-2.804688,-0.957031,0.023438,0.03125,-0.003906,0.046875,-0.011719,-0.007812
435338.0,9.375,-2.726562,-1.035156,0.023438,0.109375,-0.042969,0.042969,-0.015625,-0.001953
435362.0,9.375,-2.917969,-0.957031,-0.015625,-0.082031,-0.003906,0.044922,-0.011719,-0.003906
435378.0,9.375,-2.84375,-0.957031,-0.015625,-0.046875,-0.042969,0.044922,-0.005859,-0.003906
435402.0,9.445312,-2.652344,-0.996094,0.058594,0.183594,-0.042969,0.029297,0.001953,-0.001953
435420.0,9.414062,-2.882812,-0.957031,0.023438,0.101562,-0.082031,0.041016,0.0,0.0
435433.0,9.378906,-2.84375,-0.921875,0.023438,0.0625,0.070312,0.052734,0.0,-0.001953
435449.0,9.445312,-2.652344,-0.882812,0.023438,0.136719,0.070312,0.033203,0.0,-0.001953
435471.0,9.417969,-2.84375,-0.921875,0.015625,-0.023438,0.023438,0.009766,-0.003906,0.001953
435511.0,9.445312,-2.84375,-1.035156,0.050781,-0.03125,-0.082031,-0.017578,0.0,-0.001953
435544.0,9.335938,-2.84375,-0.957031,-0.0625,-0.039062,-0.011719,-0.013672,0.005859,-0.001953
435568.0,9.417969,-2.691406,-0.957031,-0.023438,0.078125,-0.050781,-0.021484,0.003906,-0.003906
435583.0,9.488281,-2.726562,-0.957031,-0.023438,0.039062,-0.011719,-0.03125,0.007812,0.001953
435598.0,9.300781,-2.804688,-0.765625,-0.132812,0.039062,0.101562,-0.037109,-0.001953,0.003906
435620.0,9.414062,-2.84375,-0.957031,0.015625,-0.046875,-0.011719,-0.035156,-0.005859,0.003906
435637.0,9.484375,-2.804688,-0.996094,0.089844,-0.007812,-0.050781,-0.027344,-0.007812,0.005859
435658.0,9.414062,-2.917969,-1.035156,0.050781,0.070312,-0.050781,-0.025391,-0.003906,0.013672
435678.0,9.378906,-2.726562,-0.804688,-0.015625,-0.085938,0.023438,-0.017578,-0.005859,0.011719
435702.0,9.378906,-2.765625,-0.84375,-0.015625,0.039062,0.109375,-0.039062,-0.015625,0.011719
435719.0,9.375,-2.882812,-0.882812,-0.015625,-0.046875,0.109375,-0.037109,-0.023438,0.011719
435749.0,9.414062,-2.691406,-0.765625,0.023438,-0.039062,0.117188,-0.050781,-0.029297,0.009766
435771.0,9.414062,-2.957031,-1.035156,0.023438,-0.152344,-0.074219,-0.058594,-0.039062,0.013672
435788.0,9.417969,-2.765625,-1.113281,-0.015625,-0.03125,-0.121094,-0.042969,-0.033203,0.007812
435811.0,9.339844,-2.804688,-1.226562,-0.054688,0.0,-0.242188,-0.0625,-0.027344,0.003906
435822.0,9.300781,-2.882812,-1.226562,-0.09375,-0.078125,-0.242188,-0.080078,-0.021484,0.007812
435851.0,9.378906,-2.917969,-1.074219,0.0,-0.105469,-0.066406,-0.060547,-0.007812,0.0
435868.0,9.417969,-2.882812,-1.148438,0.039062,-0.105469,-0.105469,-0.037109,0.003906,-0.003906
435891.0,9.417969,-2.765625,-1.1875,0.03125,0.054688,-0.164062,-0.037109,0.009766,0.0
435908.0,9.378906,-2.765625,-1.1875,0.0,0.054688,-0.117188,-0.03125,0.019531,0.001953
435931.0,9.417969,-2.804688,-0.996094,0.03125,0.015625,0.042969,-0.021484,0.019531,-0.001953
435948.0,9.375,-2.804688,-0.921875,-0.007812,-0.023438,0.109375,-0.019531,0.017578,0.0
435962.0,9.339844,-2.765625,-0.882812,0.0,-0.023438,0.117188,-0.017578,0.013672,0.0
435978.0,9.375,-2.917969,-0.84375,-0.046875,-0.097656,0.15625,-0.015625,0.005859,-0.001953
436000.0,9.414062,-2.726562,-1.035156,0.03125,0.101562,-0.011719,-0.013672,0.009766,0.0
436042.0,9.414062,-2.882812,-0.996094,0.039062,-0.054688,0.027344,0.027344,0.005859,-0.001953
436058.0,9.375,-2.84375,-1.035156,0.03125,0.023438,-0.011719,0.019531,0.009766,-0.003906
436081.0,9.375,-2.84375,-1.035156,-0.015625,-0.015625,-0.011719,0.017578,0.011719,-0.007812
436098.0,9.335938,-2.957031,-0.957031,-0.046875,-0.054688,0.058594,0.03125,0.005859,-0.009766
436118.0,9.375,-2.726562,-0.957031,0.058594,-0.054688,-0.019531,0.044922,0.005859,-0.013672
436138.0,9.378906,-2.691406,-0.957031,-0.015625,0.101562,0.050781,0.013672,0.007812,-0.007812
436153.0,9.378906,-2.84375,-1.074219,-0.046875,-0.054688,0.085938,0.021484,0.001953,-0.007812
436168.0,9.378906,-2.996094,-0.921875,-0.007812,-0.167969,0.050781,0.052734,0.003906,-0.013672
436191.0,9.417969,-2.691406,-0.882812,0.03125,0.136719,0.109375,0.058594,0.003906,-0.015625
436208.0,9.378906,-2.765625,-0.957031,0.066406,0.128906,0.035156,0.015625,-0.003906,-0.017578
436230.0,9.414062,-2.957031,-1.035156,0.03125,-0.136719,-0.058594,0.013672,-0.003906,-0.011719
436248.0,9.378906,-2.765625,-0.996094,-0.007812,-0.070312,-0.019531,0.044922,-0.001953,-0.019531
436270.0,9.375,-2.84375,-1.035156,-0.007812,-0.03125,-0.058594,0.037109,-0.003906,-0.011719
436302.0,9.375,-2.765625,-0.921875,-0.015625,0.054688,0.046875,0.050781,-0.009766,-0.013672
436318.0,9.414062,-2.691406,-0.921875,0.023438,0.09375,0.046875,0.056641,-0.011719,-0.011719
436342.0,9.417969,-2.691406,-1.035156,0.023438,0.113281,-0.066406,0.050781,-0.009766,-0.009766
436358.0,9.335938,-2.726562,-0.996094,-0.015625,0.113281,-0.066406,0.025391,-0.009766,-0.003906
436382.0,9.378906,-2.882812,-0.921875,-0.015625,-0.085938,0.046875,0.023438,-0.011719,-0.009766
436398.0,9.414062,-2.804688,-1.074219,0.097656,-0.046875,-0.105469,0.03125,0.0,-0.013672
436421.0,9.375,-2.765625,-1.148438,-0.023438,0.023438,-0.179688,0.005859,0.013672,-0.017578
436438.0,9.375,-2.84375,-1.035156,0.050781,0.023438,-0.179688,-0.005859,0.017578,-0.013672
436460.0,9.445312,-2.882812,-0.957031,0.050781,-0.101562,0.011719,0.007812,0.025391,-0.015625
436492.0,9.449219,-2.613281,-1.074219,0.050781,0.089844,-0.136719,-0.037109,0.035156,-0.017578
436508.0,9.414062,-2.84375,-0.996094,0.015625,0.007812,-0.097656,-0.023438,0.037109,-0.011719
436531.0,9.375,-2.765625,-0.804688,-0.023438,0.007812,0.164062,-0.005859,0.035156,-0.015625
436549.0,9.417969,-2.691406,-0.84375,0.0,0.082031,0.078125,-0.003906,0.029297,-0.013672
436571.0,9.375,-2.765625,-0.921875,-0.039062,-0.007812,0.039062,-0.019531,0.029297,-0.009766
436587.0,9.417969,-2.765625,-0.957031,-0.03125,0.03125,0.070312,-0.001953,0.021484,-0.005859
436610.0,9.417969,-2.726562,-0.804688,0.007812,0.023438,0.140625,0.007812,0.011719,-0.003906
436627.0,9.484375,-2.765625,-0.882812,0.042969,-0.015625,0.101562,0.019531,0.011719,0.0
436642.0,9.417969,-2.691406,-0.957031,-0.03125,0.03125,-0.027344,0.019531,0.013672,0.001953
436658.0,9.339844,-2.765625,-0.957031,-0.039062,0.058594,-0.027344,0.013672,0.007812,0.001953
436682.0,9.375,-2.84375,-0.882812,-0.039062,-0.09375,0.03125,0.035156,0.003906,0.0
436697.0,9.417969,-2.652344,-0.921875,0.0,0.023438,0.03125,0.042969,0.007812,0.0
436721.0,9.484375,-2.765625,-0.882812,0.082031,-0.007812,0.03125,0.013672,0.001953,0.001953
436738.0,9.414062,-2.765625,-0.804688,0.035156,-0.015625,0.101562,0.009766,0.001953,0.0
436759.0,9.414062,-2.765625,-0.921875,0.0,-0.015625,-0.015625,0.011719,0.0,-0.001953
436801.0,9.375,-2.917969,-0.84375,-0.039062,-0.175781,0.054688,0.007812,-0.001953,-0.005859
