Time,ax,ay,az,lax,lay,laz,gx,gy,gz
471171.0,1.515625,-11.238281,-5.71875,-0.375,-2.015625,-3.453125,-0.71875,0.921875,0.808594
471201.0,0.980469,-9.929688,1.828125,-0.722656,-0.714844,4.242188,-0.449219,-0.337891,0.6875
471218.0,0.40625,-8.519531,0.183594,-1.367188,-0.132812,3.5,-0.175781,0.6875,0.507812
471243.0,-0.054688,-8.554688,-1.121094,-1.617188,0.6875,1.324219,-0.283203,1.310547,0.552734
471258.0,-1.625,-9.429688,-1.199219,-2.40625,0.34375,1.570312,-0.646484,1.550781,0.544922
471272.0,-2.199219,-9.777344,-2.0,-3.945312,-0.589844,0.253906,-0.679688,1.300781,0.498047
471288.0,-2.773438,-10.195312,-1.808594,-4.167969,-0.597656,0.292969,-0.527344,0.779297,0.283203
471311.0,-2.046875,-10.316406,-1.082031,-3.507812,-1.113281,1.566406,-0.253906,0.378906,0.296875
471328.0,-0.859375,-9.933594,-0.96875,-2.949219,-1.074219,1.734375,-0.216797,0.433594,0.443359
471343.0,-0.132812,-10.089844,-0.96875,-1.085938,-0.84375,2.179688,-0.242188,0.466797,0.482422
471358.0,0.632812,-10.355469,-0.203125,-0.855469,-0.996094,2.539062,-0.082031,0.470703,0.363281
471381.0,0.863281,-10.773438,-0.46875,-0.402344,-1.546875,2.210938,0.162109,0.242188,0.265625
471398.0,0.789062,-9.816406,-0.8125,-0.453125,-1.304688,2.070312,0.332031,0.322266,0.324219
471413.0,0.671875,-9.242188,-0.621094,-0.828125,0.023438,1.535156,0.294922,0.490234,0.328125
471450.0,0.558594,-9.246094,-1.964844,-0.574219,0.0625,0.480469,0.210938,0.847656,0.298828
471491.0,1.667969,-8.941406,-0.890625,0.582031,0.40625,1.4375,0.148438,0.519531,0.181641
471508.0,1.746094,-9.46875,-1.65625,0.660156,-0.042969,1.34375,0.144531,0.626953,0.197266
471528.0,1.402344,-8.707031,-1.847656,0.675781,0.460938,0.074219,0.060547,0.662109,0.123047
471548.0,0.328125,-9.128906,-1.695312,0.339844,0.660156,0.402344,-0.044922,0.65625,0.0
471561.0,-0.167969,-9.363281,-1.964844,-1.5625,-0.027344,0.226562,-0.078125,0.609375,-0.019531
471577.0,-0.859375,-9.359375,-1.351562,-1.730469,0.085938,0.484375,-0.134766,0.455078,-0.056641
471598.0,-2.007812,-10.050781,-0.203125,-2.789062,-0.34375,1.640625,-0.142578,0.300781,-0.052734
471618.0,-2.085938,-11.238281,0.375,-3.132812,-0.695312,2.03125,0.232422,0.146484,0.041016
471637.0,0.097656,-12.730469,-1.121094,-2.214844,-3.125,1.566406,0.84375,-0.279297,0.185547
471680.0,5.382812,-9.363281,-0.164062,4.429688,0.132812,1.53125,1.263672,-0.923828,0.197266
471700.0,4.847656,-9.472656,0.449219,3.925781,0.058594,1.957031,1.017578,-0.535156,0.044922
471710.0,4.425781,-9.507812,0.449219,3.511719,0.042969,1.855469,0.904297,0.246094,0.080078
471740.0,2.589844,-10.550781,-2.0,1.714844,-0.945312,-0.976562,1.398438,0.701172,0.240234
471757.0,0.519531,-10.160156,-5.066406,0.671875,-0.957031,-2.9375,2.4375,1.457031,0.294922
471778.0,3.085938,-8.175781,-6.023438,0.335938,0.535156,-5.015625,1.208984,1.818359,0.375
471811.0,0.175781,-3.804688,-7.597656,-0.472656,5.875,-7.546875,-0.652344,1.792969,0.513672
471827.0,-0.972656,-4.03125,-5.257812,-1.191406,6.0,-5.9375,-1.466797,1.75,0.205078
471847.0,-2.699219,-7.558594,-1.734375,-2.347656,4.183594,-4.03125,-1.554688,0.810547,-0.476562
471867.0,-8.675781,-14.90625,4.128906,-3.308594,2.105469,-1.203125,-0.125,-0.919922,-0.503906
471888.0,-1.585938,-17.554688,-0.46875,-9.867188,-10.214844,1.054688,0.302734,-1.943359,0.082031
471917.0,7.183594,-5.566406,1.214844,7.332031,3.011719,1.105469,-0.039062,-1.205078,-0.138672
471937.0,4.925781,-7.476562,1.675781,5.570312,3.433594,2.433594,-0.646484,0.292969,-0.392578
471957.0,1.324219,-9.890625,-0.046875,1.632812,0.3125,1.238281,-0.755859,0.935547,-0.0625
471971.0,1.132812,-10.355469,-0.46875,0.582031,-0.269531,0.8125,-0.595703,0.521484,-0.039062
471987.0,0.632812,-9.085938,-2.0,0.367188,-0.054688,-0.035156,-0.515625,0.337891,0.076172
472007.0,-0.515625,-9.433594,-2.730469,-0.699219,0.589844,-1.699219,-0.828125,0.347656,0.234375
472027.0,-1.550781,-10.3125,-0.851562,-2.0,-0.769531,-0.339844,-0.441406,0.025391,0.058594
472047.0,-0.628906,-9.816406,-0.164062,-2.253906,-0.738281,0.414062,0.023438,-0.082031,-0.167969
472067.0,0.863281,-9.164062,-1.425781,-0.253906,-0.007812,0.246094,0.033203,0.037109,-0.148438
472091.0,0.980469,-9.8125,-1.464844,0.222656,-0.246094,-0.167969,-0.119141,-0.359375,-0.078125
472106.0,0.75,-9.8125,-1.425781,0.039062,-0.398438,0.113281,-0.214844,-0.322266,0.113281
472130.0,1.402344,-8.824219,-1.773438,0.691406,0.742188,-0.390625,-0.371094,-0.041016,0.142578
472147.0,1.476562,-9.394531,-1.390625,0.859375,0.589844,-0.121094,-0.314453,-0.054688,0.019531
472161.0,1.246094,-9.816406,-1.503906,0.359375,-0.578125,-0.105469,-0.210938,0.046875,-0.007812
472176.0,0.597656,-10.394531,-1.847656,0.136719,-0.769531,-0.234375,-0.070312,0.328125,0.011719
472200.0,0.289062,-9.433594,-2.15625,-0.398438,0.113281,-0.640625,-0.125,0.308594,0.117188
472217.0,0.980469,-8.625,-1.542969,-0.046875,0.496094,-0.25,-0.097656,0.052734,0.140625
472239.0,0.902344,-8.941406,-0.355469,0.246094,0.601562,1.191406,-0.070312,0.017578,0.066406
472270.0,0.558594,-10.15625,1.0625,-0.121094,-0.613281,2.570312,0.410156,0.011719,-0.037109
472286.0,0.632812,-10.390625,1.371094,-0.113281,-0.722656,2.707031,0.947266,-0.185547,0.039062
472310.0,1.132812,-10.507812,1.828125,0.476562,-0.921875,2.96875,1.539062,-0.599609,-0.011719
472327.0,1.363281,-10.238281,2.289062,0.636719,-0.78125,2.882812,2.130859,-1.105469,-0.066406
472341.0,1.515625,-10.15625,2.976562,0.789062,-0.484375,4.140625,2.462891,-1.191406,-0.064453
472379.0,0.980469,-8.28125,3.859375,0.339844,1.347656,3.203125,3.851562,0.126953,0.111328
472396.0,0.75,-6.828125,2.902344,0.199219,1.929688,2.828125,3.423828,1.654297,0.224609
472426.0,3.085938,-3.996094,-6.101562,3.84375,5.972656,-7.953125,2.273438,0.509766,0.257812
472450.0,-2.085938,-6.484375,-0.738281,-2.484375,2.835938,-3.316406,1.685547,0.216797,0.429688
472466.0,-3.734375,-9.128906,-0.660156,-3.472656,1.441406,-3.011719,1.783203,0.128906,0.458984
472486.0,-2.429688,-11.734375,4.664062,-3.039062,-1.964844,0.03125,2.273438,0.839844,0.363281
472506.0,-4.882812,-13.308594,5.582031,-2.625,-2.648438,1.390625,2.242188,0.109375,0.445312
472531.0,1.667969,-11.347656,3.820312,-1.757812,-3.585938,-0.78125,2.117188,-0.755859,0.105469
472566.0,4.542969,-5.5625,2.328125,5.664062,2.109375,-2.792969,0.837891,1.085938,-0.035156
472590.0,0.058594,-11.199219,5.238281,0.097656,-2.765625,0.550781,-0.269531,2.080078,0.150391
472607.0,-3.847656,-18.972656,7.957031,-2.167969,-6.074219,2.742188,-0.984375,1.25,0.271484
472629.0,2.589844,-22.613281,10.640625,2.878906,-14.035156,6.242188,-0.988281,-0.824219,0.025391
472646.0,5.996094,-20.277344,9.300781,5.226562,-12.292969,6.097656,-1.650391,-0.984375,-0.646484
472660.0,5.921875,-19.890625,7.957031,5.195312,-11.109375,2.632812,-2.083984,-0.724609,-0.953125
472689.0,4.3125,-24.335938,1.675781,3.976562,-15.234375,-1.621094,-3.335938,-0.181641,-1.222656
472705.0,0.671875,-27.136719,-6.675781,2.105469,-18.488281,-7.167969,-4.445312,0.642578,-1.310547
472730.0,-6.988281,-22.691406,-7.171875,-7.746094,-13.132812,-8.882812,-4.798828,0.955078,-1.224609
472746.0,-7.832031,-15.945312,-2.386719,-9.296875,-10.980469,-6.675781,-4.962891,-1.341797,-0.552734
472770.0,-1.703125,-12.191406,19.222656,-2.640625,-2.441406,19.507812,-4.757812,-4.046875,0.501953
472808.0,15.6875,-10.929688,16.730469,14.882812,-1.132812,17.402344,3.587891,-2.810547,-0.621094
472827.0,14.617188,-1.773438,7.574219,16.339844,4.070312,11.910156,4.623047,-3.191406,-1.755859
472840.0,13.011719,2.746094,5.007812,10.410156,16.0,3.429688,4.455078,-2.314453,-1.988281
472856.0,1.746094,4.125,-8.785156,7.710938,16.640625,-1.542969,3.8125,3.742188,-1.652344
472868.0,-4.804688,3.667969,-14.839844,-6.453125,13.300781,-16.578125,2.857422,7.654297,-1.058594
472885.0,0.097656,1.214844,-5.566406,-0.125,12.707031,-13.59375,0.980469,5.21875,-0.273438
472907.0,-12.050781,-1.121094,-2.230469,-13.335938,8.394531,-4.816406,0.824219,3.951172,0.34375
472918.0,-12.082031,1.367188,-0.011719,-13.246094,10.882812,-2.660156,-0.015625,1.998047,0.720703
472935.0,-9.902344,0.527344,-9.625,-13.113281,10.660156,-8.496094,-0.304688,0.875,1.087891
472956.0,-7.296875,0.066406,-2.039062,-7.507812,8.738281,-6.832031,0.894531,-1.21875,0.822266
472979.0,-5.457031,3.128906,-5.605469,-6.160156,12.628906,-8.367188,0.695312,-1.628906,0.429688
472995.0,-1.742188,3.09375,-3.265625,-4.519531,12.921875,-7.074219,-0.167969,-2.517578,0.009766
473019.0,2.78125,2.59375,-2.421875,1.859375,12.070312,-5.046875,-0.623047,-2.597656,0.103516
473055.0,2.625,2.402344,-0.851562,1.71875,11.871094,-3.898438,-1.476562,-1.623047,0.394531
473075.0,2.933594,1.523438,0.410156,1.648438,11.453125,-2.09375,-1.951172,-0.361328,0.322266
473128.0,3.085938,-7.175781,1.714844,2.273438,2.449219,0.878906,-1.173828,0.558594,0.574219
473159.0,2.128906,-4.03125,1.980469,1.558594,5.570312,1.347656,-0.347656,0.550781,1.011719
473175.0,4.273438,-8.246094,23.246094,2.433594,5.5625,6.765625,1.857422,1.300781,0.646484
473198.0,-9.058594,-14.03125,-17.4375,-9.308594,-4.523438,-18.535156,2.158203,1.138672,0.474609
473229.0,10.058594,-29.773438,14.890625,9.824219,-20.382812,13.273438,2.228516,-1.119141,-0.328125
473245.0,2.089844,-26.515625,3.78125,4.566406,-19.175781,3.128906,1.972656,-0.310547,0.019531
473267.0,-6.261719,-51.265625,14.011719,-6.480469,-42.070312,11.605469,2.962891,-0.847656,0.761719
473287.0,14.578125,-22.003906,-5.792969,5.441406,-26.25,-0.4375,3.613281,-2.306641,-0.492188
473305.0,4.808594,-4.453125,2.941406,7.964844,1.011719,-2.730469,1.392578,0.650391,-0.671875
473326.0,2.128906,-2.578125,5.429688,4.324219,4.382812,-0.542969,-0.894531,2.654297,-0.447266
473339.0,0.289062,-7.402344,4.472656,-2.246094,-6.351562,1.609375,-1.714844,3.169922,-0.134766
473355.0,-5.113281,-32.265625,3.285156,-4.328125,-15.398438,1.238281,-2.169922,1.597656,-0.0625
473378.0,-0.820312,-25.523438,3.246094,-1.117188,-16.382812,0.519531,-2.009766,-0.910156,-0.751953
473395.0,6.1875,-23.679688,2.941406,2.957031,-13.714844,0.386719,-2.839844,-1.396484,-1.013672
473414.0,5.460938,-24.832031,-1.003906,7.21875,-17.597656,-1.726562,-3.955078,-0.216797,-1.554688
473455.0,-11.203125,-23.574219,-1.925781,-11.738281,-14.933594,-2.882812,-4.617188,0.248047,-0.634766
473468.0,-8.75,-18.664062,0.792969,-10.007812,-9.089844,1.316406,-4.361328,-1.929688,-0.236328
473485.0,4.847656,-15.027344,27.109375,2.035156,-3.96875,18.617188,-2.123047,-2.585938,0.425781
473505.0,14.65625,-28.550781,35.847656,3.652344,-5.480469,28.371094,4.708984,-2.052734,-0.347656
473524.0,21.628906,-9.625,11.675781,22.117188,-6.113281,18.449219,6.578125,-0.429688,-2.189453
473542.0,12.625,0.144531,-1.003906,20.289062,0.0625,11.605469,6.351562,2.714844,-2.777344
473558.0,-3.042969,-6.445312,-6.523438,-5.097656,2.960938,-8.5,5.5625,5.044922,-3.214844
473574.0,-17.023438,-15.027344,-29.964844,-11.535156,-2.046875,-16.5625,4.988281,5.416016,0.195312
473593.0,-9.019531,-6.597656,-11.003906,-10.847656,2.386719,-14.683594,5.75,4.496094,1.947266
473644.0,3.429688,12.898438,-8.324219,0.023438,17.503906,-11.003906,2.201172,-0.716797,0.732422
473664.0,-6.796875,7.6875,-9.8125,-8.179688,14.71875,-20.195312,1.251953,-1.572266,-0.349609
473689.0,-2.851562,5.160156,-9.007812,-1.347656,11.894531,-15.273438,0.486328,-3.511719,-0.611328
473704.0,2.128906,4.355469,-5.90625,-0.011719,11.25,-12.71875,-0.476562,-2.943359,-0.201172
473732.0,4.738281,3.933594,-4.605469,2.851562,11.519531,-10.644531,-1.712891,-1.482422,0.255859
473768.0,-0.015625,1.0625,-4.761719,-1.796875,9.210938,-9.933594,-3.214844,0.453125,0.523438
473784.0,-1.242188,0.335938,-4.457031,-2.378906,9.175781,-9.621094,-3.9375,0.140625,0.556641
473799.0,-1.203125,-0.085938,-3.769531,-2.230469,7.980469,-6.589844,-4.214844,-0.064453,0.619141
473812.0,-0.246094,-0.929688,-2.117188,-1.785156,7.882812,-5.976562,-4.396484,-0.068359,0.71875
473827.0,0.136719,-1.429688,-2.265625,-1.246094,7.6875,-5.269531,-4.621094,0.183594,0.759766
473844.0,-4.957031,-4.109375,0.183594,-3.804688,6.597656,-2.503906,-5.25,1.634766,0.503906
473861.0,-7.027344,-8.78125,-2.691406,-6.160156,5.25,-1.894531,-5.027344,1.132812,0.177734
473884.0,-6.144531,-19.855469,3.9375,-7.632812,-5.34375,-0.101562,-0.578125,-3.605469,0.242188
473906.0,8.296875,-12.613281,20.871094,7.265625,-3.152344,20.09375,1.265625,-3.53125,0.867188
473938.0,-0.4375,-6.5625,-16.449219,-1.328125,2.710938,-18.304688,5.230469,-2.736328,0.53125
473954.0,13.890625,-20.355469,6.425781,-0.570312,4.992188,-7.90625,1.425781,6.230469,-0.136719
473966.0,14.347656,-39.882812,6.042969,13.746094,-30.800781,3.472656,0.642578,4.048828,-0.267578
473985.0,-11.203125,-22.042969,-6.367188,-7.136719,-14.054688,-6.167969,0.921875,1.556641,0.384766
474008.0,-8.253906,-23.570312,9.070312,-8.347656,-26.9375,12.53125,0.894531,0.890625,1.152344
474024.0,-1.011719,-42.113281,7.382812,-7.015625,-34.859375,9.011719,1.414062,-0.962891,0.400391
474048.0,13.160156,-17.4375,0.792969,13.003906,-8.605469,-2.519531,0.572266,-2.103516,0.220703
474064.0,7.148438,-12.304688,5.507812,10.582031,-5.425781,-0.042969,-1.330078,0.173828,-0.166016
474087.0,4.273438,-19.246094,5.238281,4.0,-10.234375,2.363281,-2.759766,1.253906,-0.880859
474105.0,1.054688,-35.292969,2.824219,2.558594,-19.1875,2.007812,-3.435547,1.039062,-1.427734
474133.0,-1.894531,-25.105469,-4.953125,-0.566406,-19.28125,-5.988281,-4.294922,-0.445312,-1.232422
474157.0,-5.035156,-23.640625,-1.082031,-6.042969,-14.144531,-1.449219,-4.597656,-0.208984,-0.859375
474175.0,-2.316406,-21.6875,2.480469,-3.394531,-12.183594,2.542969,-4.605469,-1.333984,0.171875
474193.0,0.136719,-24.832031,46.070312,3.976562,-8.507812,35.003906,-0.994141,-0.720703,0.75
474214.0,-2.160156,-25.214844,23.394531,-8.722656,-16.015625,44.507812,4.695312,-3.865234,-0.316406
474244.0,14.5,3.476562,-4.03125,13.964844,0.742188,7.082031,4.931641,2.324219,-2.578125
474266.0,-2.199219,-0.46875,-12.652344,-3.917969,8.945312,-14.558594,4.478516,4.287109,-2.916016
474284.0,-11.625,-6.484375,-15.445312,-9.484375,4.398438,-24.542969,5.199219,1.853516,-0.355469
474313.0,-3.734375,-6.101562,-1.464844,-5.496094,1.976562,-2.628906,6.101562,0.96875,1.722656
474337.0,4.542969,5.773438,-11.5,3.566406,13.875,-16.976562,3.986328,0.882812,1.587891
474355.0,0.519531,8.574219,-8.015625,-0.292969,16.492188,-13.773438,1.710938,1.652344,0.732422
474374.0,-9.59375,2.058594,-9.511719,-9.023438,7.660156,-12.875,1.207031,-2.427734,-0.197266
474393.0,0.328125,7.996094,-12.421875,-10.257812,9.667969,-15.699219,-0.029297,-3.126953,-0.216797
474436.0,1.171875,1.980469,-4.957031,-0.304688,9.761719,-10.703125,-1.539062,-1.074219,0.039062
474454.0,-0.859375,0.179688,-4.988281,-1.507812,9.0,-10.277344,-2.578125,-0.675781,0.21875
474466.0,-1.164062,-0.433594,-7.476562,-2.6875,7.722656,-12.589844,-2.845703,-1.050781,0.21875
474484.0,0.519531,-1.925781,-3.308594,-1.164062,6.515625,-9.144531,-3.060547,-1.658203,0.125
474508.0,0.789062,-2.460938,-2.726562,-0.042969,5.71875,-5.394531,-3.441406,-1.115234,0.410156
474523.0,1.976562,-2.230469,-3.265625,0.417969,6.160156,-5.578125,-4.019531,1.132812,0.683594
474551.0,-0.285156,-2.921875,-0.621094,-1.667969,6.25,-3.128906,-4.498047,1.939453,0.662109
474583.0,-3.617188,-11.464844,10.832031,-2.4375,0.285156,2.972656,-1.529297,-0.357422,0.447266
474604.0,-3.347656,-17.058594,23.125,-4.734375,-2.082031,9.628906,1.615234,0.054688,1.185547
474618.0,4.042969,-13.378906,21.054688,10.609375,0.746094,24.945312,2.234375,0.173828,0.720703
474648.0,0.40625,-6.753906,-15.222656,-0.382812,2.339844,-17.640625,3.203125,0.199219,0.363281
474673.0,13.390625,-30.121094,0.449219,13.523438,-23.457031,9.28125,1.464844,2.123047,0.287109
474698.0,-15.339844,-21.464844,-1.003906,-12.648438,-17.792969,8.3125,0.925781,2.189453,-0.244141
474726.0,6.765625,-30.617188,3.054688,6.515625,-22.03125,-0.804688,1.957031,-1.976562,0.384766
474743.0,11.285156,-17.398438,-0.96875,8.613281,-14.710938,-5.019531,0.791016,-0.4375,0.273438
474758.0,9.980469,-15.222656,-1.351562,6.550781,-6.78125,-4.753906,-0.496094,1.111328,0.207031
474772.0,4.003906,-21.34375,4.472656,5.203125,-8.773438,-1.773438,-1.914062,1.296875,0.222656
474796.0,4.425781,-28.46875,3.78125,4.339844,-19.691406,0.226562,-2.501953,0.128906,-0.242188
474815.0,4.386719,-28.125,2.75,4.246094,-19.238281,-0.5625,-3.050781,-0.679688,-1.113281
474832.0,1.171875,-23.414062,-3.265625,1.226562,-14.398438,-4.046875,-3.675781,-0.871094,-1.550781
474844.0,0.214844,-23.453125,-4.03125,0.640625,-14.214844,-5.71875,-4.046875,-0.761719,-1.710938
474864.0,-6.835938,-21.621094,-0.585938,-7.84375,-12.171875,-1.851562,-4.365234,-0.568359,-1.574219
474905.0,6.800781,-20.390625,40.59375,5.824219,-10.796875,41.214844,-3.058594,-1.429688,1.222656
474936.0,17.605469,-15.640625,13.894531,16.621094,-5.960938,13.996094,5.359375,-3.748047,-1.208984
474982.0,-3.734375,-1.773438,-24.023438,-1.253906,12.261719,-16.210938,4.347656,5.191406,-2.460938
475004.0,-12.195312,-3.917969,-11.347656,-14.042969,5.027344,-15.042969,4.722656,3.777344,-1.0
475044.0,-1.167969,-0.507812,-0.164062,-2.070312,7.570312,-5.804688,6.226562,-0.013672,2.148438
475075.0,-12.773438,-0.164062,-1.925781,-13.289062,7.414062,-8.277344,2.027344,1.382812,0.564453
475085.0,-18.976562,-2.003906,-5.105469,-19.566406,5.472656,-11.582031,1.363281,-1.910156,-0.642578
475122.0,6.878906,4.28125,-8.628906,7.117188,12.566406,-17.042969,-0.933594,-2.287109,-0.210938
475143.0,2.816406,2.59375,-6.140625,5.097656,11.601562,-15.035156,-1.738281,-0.324219,0.005859
475163.0,-1.625,1.636719,-6.328125,-1.769531,9.757812,-11.28125,-2.332031,0.164062,0.273438
475185.0,-2.277344,-0.929688,-5.21875,-4.136719,7.0625,-10.617188,-2.818359,-0.167969,0.333984
475226.0,0.519531,-2.34375,-2.269531,-1.394531,6.261719,-6.441406,-3.722656,-1.324219,0.615234
475242.0,1.054688,-2.121094,-1.65625,-0.988281,6.179688,-5.246094,-3.970703,0.826172,0.90625
475257.0,1.054688,-1.65625,-2.082031,-1.0,6.90625,-4.238281,-4.220703,1.828125,1.072266
475270.0,-0.554688,-2.769531,0.183594,-2.0625,6.394531,-2.558594,-4.474609,2.123047,1.193359
475285.0,-7.90625,-3.839844,-4.222656,-9.148438,5.527344,-6.136719,-4.601562,1.390625,1.126953
475302.0,-3.121094,-12.574219,2.097656,-6.78125,-1.039062,-6.222656,-1.832031,-0.691406,0.570312
475326.0,-0.707031,-11.386719,24.734375,-1.730469,-1.949219,23.566406,-0.273438,-1.517578,0.714844
475342.0,8.066406,-7.402344,38.761719,2.140625,2.851562,24.789062,3.064453,-1.806641,0.888672
475359.0,11.898438,-16.828125,-3.074219,7.128906,1.972656,37.320312,3.892578,-2.03125,0.650391
475375.0,6.648438,-15.449219,14.277344,5.773438,-6.285156,11.957031,2.738281,0.015625,0.099609
475395.0,5.308594,-20.160156,-2.996094,4.503906,-11.121094,-5.746094,2.197266,2.470703,0.109375
475405.0,-7.21875,-20.851562,-5.792969,-8.007812,-11.851562,-8.644531,0.748047,2.361328,-0.273438
475422.0,-5.761719,-36.820312,17.996094,-6.671875,-17.78125,3.191406,0.792969,1.279297,1.408203
475448.0,-3.121094,-29.277344,9.144531,-7.5625,-32.796875,11.09375,1.455078,-0.878906,0.726562
475462.0,11.015625,-20.277344,2.367188,-3.457031,-20.394531,5.902344,0.792969,-0.470703,0.007812
475483.0,3.96875,-14.910156,2.097656,5.953125,-6.988281,-3.738281,-1.099609,1.427734,-0.298828
475504.0,2.742188,-23.957031,3.167969,2.453125,-15.0,0.003906,-1.763672,1.296875,-0.179688
475535.0,1.667969,-28.089844,1.90625,1.246094,-18.894531,-0.546875,-2.783203,-0.072266,-0.638672
475552.0,3.199219,-25.445312,-1.695312,1.527344,-17.925781,-1.746094,-3.664062,-1.009766,-1.304688
475573.0,0.941406,-21.238281,-3.265625,-0.011719,-11.75,-4.335938,-3.96875,-1.261719,-1.482422
475590.0,-0.859375,-22.496094,0.105469,-1.960938,-12.972656,-0.519531,-4.847656,-0.289062,-1.263672
475605.0,-6.335938,-22.53125,-0.238281,-7.578125,-12.980469,0.136719,-5.097656,0.457031,-0.767578
475622.0,4.503906,-17.171875,33.773438,-0.402344,-4.675781,16.164062,-4.28125,-2.175781,0.898438
475639.0,-1.894531,-23.570312,49.175781,3.371094,-7.648438,35.144531,-0.570312,0.066406,0.669922
475655.0,15.613281,-17.902344,15.351562,14.597656,-8.265625,16.429688,3.294922,-1.582031,-0.099609
475671.0,20.941406,-4.683594,5.46875,15.539062,0.070312,12.34375,6.134766,0.962891,-1.792969
475702.0,-0.667969,0.910156,-14.140625,10.894531,16.441406,-9.132812,4.033203,7.128906,-3.056641
475722.0,-11.125,-7.710938,-14.988281,-10.261719,3.664062,-17.078125,3.681641,3.347656,-0.210938
475743.0,-9.363281,-5.144531,-23.644531,-13.09375,1.554688,-17.707031,4.566406,0.837891,2.625
475771.0,0.902344,-2.082031,-1.582031,-2.382812,6.066406,1.671875,4.357422,0.378906,1.919922
475794.0,-2.546875,2.480469,-2.921875,-3.09375,10.644531,-8.523438,3.316406,0.402344,1.283203
475811.0,-12.433594,-3.191406,-5.792969,-5.21875,9.390625,-10.257812,1.785156,-1.390625,-0.208984
475841.0,4.160156,4.433594,-9.703125,-5.375,5.082031,-14.785156,1.175781,-3.71875,-0.111328
475865.0,5.539062,3.78125,-6.832031,4.125,11.320312,-13.078125,-0.039062,-1.513672,-0.097656
475882.0,2.816406,3.933594,-5.910156,2.460938,11.453125,-12.769531,-1.017578,0.011719,0.066406
475896.0,1.324219,3.667969,-5.300781,-2.222656,11.023438,-11.488281,-1.457031,0.177734,0.205078
475911.0,-3.503906,2.671875,-7.09375,-3.867188,10.511719,-12.265625,-2.318359,-0.027344,0.248047
475935.0,-2.582031,1.675781,-5.832031,-4.019531,9.832031,-11.089844,-3.105469,-0.90625,0.074219
475953.0,-2.277344,1.445312,-5.222656,-3.761719,9.773438,-10.15625,-3.800781,-1.466797,0.0
475972.0,-0.9375,3.625,-0.585938,-3.648438,10.964844,-5.011719,-4.597656,-0.832031,0.320312
475991.0,-1.394531,3.476562,-4.257812,-2.332031,13.09375,-5.621094,-5.701172,1.96875,0.732422
476011.0,-8.597656,-5.566406,-7.902344,-12.730469,8.917969,-11.894531,-5.533203,-1.216797,0.648438
476022.0,-6.835938,-12.121094,-6.636719,-9.902344,3.816406,-9.746094,-4.113281,-2.017578,0.595703
476037.0,-1.96875,-25.367188,22.820312,-8.109375,-2.671875,-7.996094,-1.537109,-2.681641,0.835938
476061.0,17.605469,-10.738281,32.746094,13.746094,-7.128906,32.574219,3.283203,-3.427734,0.732422
476075.0,14.921875,-13.761719,37.261719,20.121094,-2.105469,-15.488281,4.255859,-1.484375,1.148438
476093.0,5.84375,2.902344,-30.65625,4.9375,12.136719,-32.773438,2.087891,3.353516,0.085938
476115.0,16.378906,-53.828125,0.757812,15.714844,-44.707031,-1.6875,-0.994141,2.390625,-0.925781
476131.0,-9.171875,-29.277344,2.097656,-4.605469,-15.410156,-2.601562,0.417969,2.654297,0.574219
476151.0,-14.496094,-49.425781,9.796875,-19.148438,-47.390625,21.730469,1.861328,-1.169922,0.802734
476171.0,15.878906,-21.964844,-6.945312,-14.878906,-40.371094,7.132812,2.716797,-2.958984,-0.462891
476201.0,1.402344,-7.78125,-0.738281,12.046875,-1.148438,-8.976562,-1.373047,1.347656,-0.345703
476215.0,0.980469,-9.550781,0.410156,-0.542969,-3.738281,-3.511719,-1.998047,1.21875,0.123047
476231.0,1.476562,-19.277344,-0.890625,0.011719,-6.503906,-5.898438,-2.091797,0.677734,0.058594
476256.0,-1.894531,-20.65625,-0.890625,-2.472656,-11.484375,-3.242188,-2.179688,-0.072266,-0.544922
476285.0,0.136719,-14.21875,0.832031,-0.683594,-4.910156,-0.886719,-2.203125,-0.6875,-0.886719
476322.0,0.175781,-11.34375,5.125,-0.917969,-1.910156,4.234375,-1.980469,-0.871094,-0.447266
476364.0,-0.589844,-5.523438,0.066406,-1.582031,3.988281,-0.285156,-0.951172,-0.373047,0.552734
476394.0,-0.898438,-1.738281,-0.546875,-1.804688,7.8125,-0.609375,-0.929688,-0.3125,-0.007812
476413.0,-0.167969,-1.464844,0.792969,-1.074219,8.082031,0.839844,-1.195312,0.40625,-0.417969
476434.0,0.824219,-3.996094,0.792969,-0.207031,5.542969,1.183594,-1.347656,0.316406,-0.46875
476451.0,0.824219,-5.449219,0.183594,-0.445312,4.6875,0.742188,-1.333984,-0.248047,-0.242188
476470.0,1.054688,-5.449219,1.0625,-0.015625,3.742188,1.5,-0.980469,-0.261719,0.001953
476490.0,0.25,-4.996094,0.566406,-0.054688,4.050781,1.960938,-0.644531,-0.347656,0.050781
476510.0,0.671875,-4.074219,-1.390625,-0.644531,5.207031,-0.003906,-0.667969,-0.396484,0.15625
476533.0,1.976562,-6.636719,-1.464844,0.929688,2.808594,-0.128906,-0.761719,-0.169922,0.111328
476550.0,2.28125,-10.511719,-2.578125,1.335938,0.753906,-0.464844,-0.808594,0.195312,-0.433594
476573.0,0.480469,-12.269531,-3.226562,-0.675781,-2.894531,-1.578125,-0.759766,0.021484,-0.410156
476590.0,0.328125,-11.699219,-2.230469,-0.675781,-2.792969,-0.695312,-0.710938,-0.509766,0.230469
476610.0,1.09375,-11.082031,-4.261719,-0.660156,-1.554688,-1.628906,-0.617188,-0.466797,0.259766
476632.0,2.207031,-11.347656,-4.796875,1.175781,-2.027344,-2.789062,-0.746094,-0.417969,0.0625
476650.0,2.625,-13.308594,-3.457031,2.15625,-3.171875,-2.027344,-0.892578,-0.419922,-0.158203
476680.0,1.171875,-11.464844,-0.277344,0.003906,-3.195312,1.667969,-0.382812,-0.28125,0.044922
476700.0,2.472656,-9.742188,-0.546875,0.714844,-1.371094,2.320312,-0.027344,-0.285156,0.041016
476715.0,3.125,-9.050781,-1.3125,2.339844,0.6875,0.359375,-0.025391,-0.220703,-0.050781
476730.0,2.472656,-8.171875,-2.882812,2.023438,0.878906,-0.054688,-0.304688,0.236328,-0.126953
476754.0,0.328125,-7.59375,-3.839844,-0.703125,1.578125,-1.207031,-0.658203,0.386719,-0.048828
476770.0,-1.050781,-7.597656,-3.878906,-1.363281,1.675781,-1.183594,-0.673828,-0.029297,-0.025391
476790.0,-1.050781,-8.132812,-2.078125,-2.558594,1.253906,-0.023438,-0.367188,-0.386719,0.048828
476810.0,0.597656,-8.324219,-1.464844,-1.222656,0.769531,1.316406,-0.095703,-0.328125,0.048828
476829.0,1.628906,-8.242188,-1.390625,0.601562,0.992188,1.503906,-0.134766,-0.041016,-0.001953
476853.0,1.402344,-9.359375,-2.460938,0.417969,-0.28125,0.515625,-0.193359,0.148438,0.0
476870.0,1.09375,-9.203125,-3.035156,0.179688,-0.179688,0.222656,-0.201172,0.015625,0.015625
476894.0,1.554688,-8.746094,-2.996094,0.570312,0.300781,0.058594,-0.226562,-0.199219,0.015625
476910.0,1.363281,-9.320312,-2.691406,0.5,0.101562,0.339844,-0.087891,-0.210938,-0.027344
476925.0,1.285156,-9.703125,-2.652344,0.355469,-0.554688,0.449219,0.060547,-0.113281,-0.013672
476940.0,1.324219,-9.246094,-2.652344,0.546875,-0.320312,0.507812,0.189453,0.027344,-0.019531
476964.0,0.328125,-9.433594,-3.839844,-0.65625,-0.386719,-0.800781,0.107422,0.193359,-0.064453
476980.0,0.671875,-9.816406,-4.070312,-0.550781,-0.648438,-0.960938,-0.015625,0.070312,0.017578
477003.0,0.75,-8.972656,-3.765625,-0.234375,0.074219,-0.726562,-0.003906,-0.101562,0.101562
477020.0,0.480469,-8.476562,-3.378906,-0.496094,0.308594,-0.570312,0.054688,-0.210938,0.070312
477034.0,0.632812,-8.4375,-3.574219,0.140625,0.425781,-0.726562,0.033203,-0.226562,0.048828
477050.0,1.785156,-8.972656,-3.609375,0.65625,0.242188,-0.5625,0.046875,-0.167969,-0.005859
477073.0,1.246094,-8.824219,-4.261719,0.308594,0.242188,-1.222656,0.003906,0.039062,-0.044922
477090.0,0.902344,-8.941406,-3.917969,0.15625,0.316406,-1.070312,-0.083984,0.039062,0.001953
477110.0,0.710938,-8.78125,-3.226562,-0.226562,0.082031,-0.316406,-0.042969,-0.027344,0.080078
477130.0,0.824219,-8.746094,-2.960938,-0.210938,0.386719,0.035156,-0.03125,-0.017578,0.091797
477150.0,1.4375,-8.746094,-2.691406,0.378906,0.234375,0.425781,0.011719,0.134766,0.101562
477174.0,1.210938,-9.085938,-3.226562,0.3125,-0.035156,-0.148438,-0.003906,0.244141,0.09375
477190.0,0.671875,-8.9375,-3.34375,-0.042969,0.082031,-0.109375,-0.035156,0.361328,0.09375
477212.0,0.367188,-8.664062,-3.535156,-0.539062,0.386719,-0.449219,-0.060547,0.347656,0.105469
477230.0,0.40625,-9.585938,-3.226562,-0.617188,-0.082031,-0.285156,-0.023438,0.085938,0.029297
477244.0,0.519531,-9.851562,-2.960938,-0.308594,-1.039062,0.410156,0.054688,-0.056641,0.019531
477283.0,1.59375,-9.625,-2.5,0.710938,-0.5625,0.546875,0.220703,-0.097656,0.039062
477299.0,1.859375,-8.742188,-2.730469,0.910156,-0.402344,0.371094,0.212891,-0.03125,0.017578
477322.0,1.59375,-8.480469,-3.113281,0.71875,0.609375,-0.128906,0.105469,0.099609,-0.001953
477354.0,0.519531,-9.585938,-2.539062,-0.363281,-0.492188,0.445312,-0.074219,0.128906,0.027344
477369.0,0.023438,-9.851562,-1.925781,-0.554688,-0.683594,0.914062,0.013672,0.160156,0.091797
477393.0,0.25,-10.160156,-1.808594,-0.625,-1.058594,1.167969,0.109375,0.078125,0.085938
477409.0,0.671875,-9.972656,-2.0,-0.386719,-0.945312,1.042969,0.142578,-0.025391,0.070312
477429.0,1.4375,-8.859375,-3.1875,0.359375,-0.25,0.324219,0.146484,0.021484,0.041016
477449.0,1.4375,-8.363281,-3.648438,0.671875,0.6875,-0.621094,0.03125,0.027344,-0.019531
477469.0,0.480469,-8.554688,-3.074219,-0.027344,0.609375,-0.472656,-0.023438,-0.037109,-0.042969
477493.0,-0.132812,-9.628906,-1.964844,-0.984375,-0.5,0.949219,-0.029297,-0.060547,-0.025391
477509.0,0.480469,-9.972656,-1.65625,-0.667969,-0.652344,1.179688,0.064453,-0.107422,0.101562
477532.0,1.132812,-9.585938,-1.808594,0.320312,-0.453125,1.089844,0.080078,-0.052734,0.083984
477549.0,1.4375,-8.972656,-1.695312,0.558594,-0.109375,1.082031,-0.005859,-0.027344,0.033203
477564.0,1.402344,-8.78125,-1.617188,0.488281,0.550781,1.425781,-0.039062,0.001953,0.013672
477580.0,0.941406,-8.628906,-1.234375,0.335938,0.664062,1.625,-0.134766,0.056641,-0.025391
477602.0,0.902344,-9.550781,-1.273438,0.089844,-0.417969,1.65625,-0.148438,0.119141,-0.041016
477619.0,0.789062,-9.890625,-1.695312,0.003906,-0.585938,1.433594,-0.152344,-0.005859,-0.119141
477642.0,0.710938,-10.511719,-1.886719,-0.15625,-1.40625,1.089844,-0.115234,-0.132812,-0.193359
477659.0,0.40625,-12.6875,-1.3125,-0.316406,-2.355469,1.28125,0.103516,-0.089844,-0.166016
477684.0,1.246094,-11.542969,-1.273438,-0.148438,-3.464844,2.03125,0.365234,0.09375,0.033203
477719.0,2.011719,-9.507812,-0.355469,1.183594,-0.054688,1.914062,0.167969,-0.105469,-0.175781
477743.0,0.789062,-10.699219,0.488281,-0.472656,-1.457031,3.269531,0.318359,0.230469,-0.130859
477758.0,0.75,-8.480469,-0.929688,-0.449219,-0.714844,2.695312,0.451172,0.693359,0.089844
477782.0,1.246094,-6.140625,-2.5,0.246094,3.078125,0.101562,0.257812,0.6875,0.007812
477799.0,0.789062,-7.292969,-1.503906,0.1875,2.742188,0.492188,0.263672,0.429688,-0.242188
477822.0,-1.011719,-8.863281,-0.660156,-2.136719,0.382812,1.777344,0.664062,0.349609,-0.287109
477838.0,-0.554688,-9.128906,-3.226562,-2.101562,0.511719,0.519531,0.546875,0.402344,-0.326172
477876.0,-1.164062,-10.011719,-1.199219,-0.875,-1.457031,0.5,0.546875,0.832031,-0.083984
477892.0,-1.511719,-7.59375,-1.65625,-2.839844,1.71875,0.382812,0.394531,0.740234,0.064453
477908.0,-2.046875,-7.097656,0.144531,-2.839844,2.253906,0.605469,-0.376953,1.023438,0.064453
477928.0,-0.363281,-7.253906,-2.421875,-2.707031,2.820312,-0.699219,-0.53125,-0.392578,-0.115234
477948.0,1.285156,-8.019531,-0.96875,-1.714844,2.039062,-0.296875,-0.228516,-0.861328,-0.164062
477969.0,0.519531,-8.132812,2.441406,-0.457031,1.347656,3.910156,0.423828,-0.636719,-0.353516
477991.0,3.125,-8.859375,1.371094,1.726562,0.40625,3.496094,0.576172,-0.736328,-0.410156
478008.0,3.777344,-10.390625,0.105469,2.382812,-0.046875,2.605469,0.181641,-0.353516,-0.552734
478032.0,2.625,-14.03125,-2.347656,1.054688,-4.773438,-0.316406,-0.042969,0.638672,-0.472656
478048.0,2.625,-13.914062,-3.648438,0.902344,-4.894531,-1.296875,0.275391,1.199219,-0.169922
478063.0,2.855469,-13.648438,-3.457031,1.199219,-3.898438,-1.351562,0.458984,1.058594,-0.087891
478079.0,1.785156,-12.042969,-4.222656,0.640625,-3.078125,-1.605469,0.669922,0.826172,-0.025391
478102.0,3.238281,-10.65625,-5.984375,1.503906,-1.347656,-4.398438,0.839844,0.681641,0.28125
478118.0,3.277344,-10.125,-5.257812,1.789062,-0.902344,-4.253906,0.775391,-0.060547,0.375
478141.0,1.554688,-10.429688,-4.070312,-0.0625,-1.039062,-2.789062,0.785156,-0.542969,0.255859
478171.0,1.171875,-10.238281,-5.832031,-0.351562,-0.800781,-4.753906,0.880859,-0.636719,0.255859
478188.0,2.855469,-9.816406,-5.71875,0.398438,-0.671875,-4.894531,0.449219,-0.039062,0.117188
478211.0,5.269531,-7.476562,-4.261719,3.792969,1.996094,-3.355469,0.205078,-0.136719,-0.011719
478228.0,4.65625,-6.636719,-4.375,3.5625,2.53125,-3.324219,-0.158203,-0.195312,-0.169922
478248.0,3.46875,-6.871094,-4.566406,2.269531,2.714844,-3.59375,-0.287109,-0.160156,-0.205078
478268.0,2.933594,-7.175781,-4.492188,1.660156,2.476562,-3.566406,-0.203125,-0.037109,-0.214844
478287.0,2.128906,-8.589844,-4.300781,0.925781,1.390625,-3.328125,-0.240234,-0.298828,-0.265625
478311.0,1.976562,-9.242188,-2.613281,0.335938,0.1875,-1.464844,-0.269531,-0.435547,-0.226562
478328.0,2.359375,-8.78125,-1.582031,0.519531,0.410156,-0.960938,-0.533203,-0.054688,0.095703
478351.0,2.167969,-8.902344,1.636719,0.550781,0.507812,3.003906,-0.628906,0.017578,0.185547
478368.0,0.824219,-8.863281,2.863281,-0.109375,0.269531,4.207031,-0.400391,0.458984,0.4375
478391.0,-0.09375,-7.558594,-1.773438,-1.578125,1.847656,-0.265625,-0.310547,0.607422,0.488281
478407.0,1.132812,-8.785156,-2.730469,-0.925781,1.464844,-1.390625,0.017578,0.201172,0.359375
478428.0,0.980469,-11.617188,2.402344,0.164062,-1.132812,2.042969,0.634766,-0.130859,0.316406
478460.0,2.550781,-6.675781,-5.71875,1.316406,2.792969,-4.414062,0.066406,0.931641,0.533203
478478.0,5.921875,-6.445312,-6.175781,3.292969,3.453125,-5.4375,-1.007812,0.96875,-0.0625
478492.0,5.613281,-7.519531,-4.339844,1.914062,0.433594,-0.609375,-0.925781,0.552734,-0.435547
478508.0,-3.234375,-12.535156,-0.394531,-1.710938,-1.421875,0.945312,-0.388672,-0.138672,-0.595703
478531.0,-2.199219,-10.390625,-3.304688,-3.605469,-1.0,-1.65625,-0.175781,-1.021484,0.035156
478548.0,-0.398438,-9.359375,-3.074219,-2.664062,-0.234375,-1.609375,-0.416016,-1.621094,0.162109
478568.0,2.089844,-8.9375,-1.964844,-0.234375,0.214844,-0.648438,-0.382812,-1.423828,0.146484
478589.0,3.164062,-8.859375,-1.464844,1.953125,0.507812,0.464844,-0.308594,-0.783203,0.033203
478607.0,3.738281,-9.242188,-0.96875,2.679688,0.183594,1.078125,-0.285156,-0.166016,0.003906
478631.0,3.316406,-9.363281,-1.160156,2.136719,-0.023438,0.933594,-0.273438,0.115234,0.003906
478648.0,1.4375,-10.199219,-1.3125,1.285156,-0.449219,0.875,-0.160156,0.3125,-0.097656
478670.0,-0.554688,-10.238281,-1.964844,-1.78125,-0.917969,0.175781,-0.142578,0.246094,-0.0625
478702.0,0.214844,-9.242188,-2.347656,-0.980469,0.070312,-0.183594,0.021484,-0.230469,0.148438
478757.0,1.898438,-9.546875,-2.078125,0.894531,-0.058594,0.148438,-0.009766,-0.017578,0.052734
478780.0,1.707031,-9.546875,-2.730469,0.597656,-0.214844,-0.566406,-0.048828,0.126953,0.060547
478812.0,1.363281,-9.011719,-2.347656,0.269531,0.324219,-0.175781,-0.011719,-0.042969,0.054688
478827.0,1.054688,-8.78125,-2.691406,0.007812,0.476562,-0.25,0.001953,-0.078125,0.068359
478850.0,1.019531,-9.246094,-2.191406,-0.042969,0.101562,-0.011719,0.025391,-0.132812,0.064453
478881.0,0.980469,-9.746094,-2.460938,-0.050781,-0.398438,-0.296875,0.060547,-0.128906,0.080078
478898.0,1.476562,-9.589844,-2.730469,0.1875,-0.425781,-0.535156,0.105469,-0.160156,0.111328
478920.0,1.667969,-9.128906,-2.421875,0.675781,0.230469,-0.28125,0.119141,-0.111328,0.125
478937.0,1.554688,-8.96875,-2.691406,0.625,0.308594,-0.40625,0.107422,-0.058594,0.125
478957.0,1.09375,-9.050781,-2.960938,0.265625,0.394531,-0.773438,0.107422,-0.123047,0.117188
478977.0,0.863281,-9.207031,-2.921875,0.15625,0.316406,-0.851562,0.132812,-0.142578,0.123047
478998.0,0.632812,-9.324219,-2.84375,-0.179688,0.140625,-0.804688,0.158203,-0.181641,0.142578
479030.0,0.824219,-9.324219,-2.691406,-0.003906,0.078125,-0.660156,0.177734,-0.339844,0.101562
479047.0,0.824219,-9.207031,-2.769531,0.011719,0.15625,-0.636719,0.164062,-0.287109,0.097656
479067.0,1.363281,-9.125,-2.460938,0.421875,0.238281,-0.652344,0.191406,-0.371094,0.103516
479097.0,1.515625,-8.820312,-2.960938,0.78125,0.523438,-1.234375,0.207031,-0.335938,0.089844
479117.0,1.171875,-8.519531,-2.613281,0.789062,0.601562,-1.015625,0.238281,-0.314453,0.021484
479137.0,-0.324219,-9.011719,-1.734375,-0.261719,0.769531,0.042969,0.166016,-0.273438,-0.132812
479157.0,-0.9375,-9.550781,-2.078125,-1.027344,0.425781,0.148438,0.269531,-0.548828,-0.205078
479170.0,-0.972656,-9.972656,-1.542969,-1.824219,-1.0625,0.976562,0.337891,-0.701172,-0.208984
479187.0,-1.128906,-10.894531,-0.011719,-1.863281,-1.359375,1.367188,0.416016,-0.847656,-0.052734
479207.0,-0.363281,-10.046875,-0.277344,-1.347656,-0.921875,1.464844,0.402344,-0.945312,0.138672
479226.0,0.175781,-9.8125,-0.011719,-0.679688,-0.371094,1.546875,0.373047,-0.845703,0.126953
479246.0,0.441406,-10.390625,0.296875,-0.160156,-0.660156,1.808594,0.486328,-0.677734,-0.019531
479259.0,0.328125,-10.578125,0.375,-0.257812,-1.066406,1.914062,0.560547,-0.611328,-0.099609
479280.0,0.632812,-10.273438,-0.164062,0.039062,-0.746094,1.257812,0.638672,-0.498047,-0.123047
479310.0,1.324219,-9.550781,-0.46875,0.722656,0.011719,0.75,0.703125,-0.027344,-0.039062
479326.0,0.75,-9.207031,-1.847656,0.261719,0.097656,-0.050781,0.572266,0.535156,0.113281
479350.0,0.558594,-8.78125,-1.425781,-0.027344,0.804688,-0.441406,0.433594,0.525391,0.109375
479366.0,0.136719,-9.007812,-1.464844,-0.21875,0.773438,-0.40625,0.285156,0.464844,0.029297
479386.0,-0.09375,-9.546875,-1.351562,-0.679688,0.207031,-0.699219,0.261719,0.361328,-0.03125
479406.0,-0.246094,-9.855469,-1.503906,-0.6875,0.050781,-0.5,0.240234,0.289062,-0.023438
479427.0,-0.515625,-9.894531,-1.464844,-1.0,-0.167969,-0.609375,0.177734,0.03125,-0.039062
479449.0,-0.554688,-9.855469,-1.234375,-1.164062,-0.238281,-0.492188,0.158203,-0.121094,-0.054688
479466.0,-0.167969,-9.625,-1.425781,-1.054688,-0.199219,-0.664062,0.162109,-0.232422,-0.070312
479490.0,0.328125,-9.664062,-0.929688,-0.304688,-0.046875,-0.25,0.164062,-0.300781,-0.064453
479506.0,0.367188,-9.972656,-0.394531,-0.257812,-0.160156,-0.066406,0.179688,-0.244141,-0.068359
479521.0,0.289062,-10.238281,0.066406,-0.503906,-0.8125,0.59375,0.244141,-0.214844,-0.074219
479560.0,1.515625,-9.625,0.21875,0.867188,0.007812,0.703125,0.523438,-0.054688,-0.048828
479577.0,1.628906,-9.394531,0.679688,1.019531,0.121094,0.996094,0.642578,0.162109,-0.080078
479599.0,0.863281,-9.855469,0.71875,0.183594,-0.214844,0.960938,0.652344,0.703125,-0.113281
479630.0,-0.132812,-9.851562,0.640625,-0.828125,-0.207031,0.640625,0.826172,1.099609,-0.005859
479648.0,0.136719,-9.8125,-0.085938,-0.558594,-0.175781,-0.171875,0.712891,0.851562,-0.042969
479669.0,0.480469,-9.242188,-1.582031,-0.214844,0.398438,-1.894531,0.753906,0.625,-0.085938
479696.0,-0.746094,-9.777344,0.105469,-0.453125,0.660156,-1.742188,0.736328,0.28125,-0.238281
479706.0,-1.511719,-10.355469,0.335938,-1.488281,-0.152344,-0.433594,0.761719,0.134766,-0.265625
479739.0,-1.050781,-10.777344,-1.886719,-1.886719,-1.171875,-2.746094,0.955078,-0.294922,-0.246094
479756.0,-0.476562,-9.777344,-1.425781,-1.679688,-0.574219,-2.5625,1.042969,-0.529297,-0.138672
479770.0,0.023438,-9.511719,-1.042969,-0.410156,0.097656,-2.09375,0.957031,-0.490234,-0.126953
479786.0,1.285156,-9.625,-0.546875,-0.082031,-0.03125,-1.941406,0.744141,-0.482422,-0.177734
479809.0,2.167969,-9.625,-0.699219,1.191406,-0.101562,-2.082031,0.550781,-0.576172,-0.240234
479826.0,2.855469,-9.359375,-1.199219,1.542969,-0.027344,-2.359375,0.451172,-0.523438,-0.222656
479839.0,3.085938,-9.050781,-0.777344,2.054688,0.6875,-1.503906,0.416016,-0.400391,-0.214844
479879.0,2.433594,-9.167969,0.449219,1.277344,0.308594,-1.121094,0.056641,0.210938,-0.314453
479896.0,2.167969,-9.773438,0.410156,1.132812,-0.035156,-1.128906,-0.0625,0.220703,-0.412109
479919.0,1.785156,-9.972656,0.410156,0.488281,-0.507812,-1.144531,-0.083984,0.089844,-0.453125
479936.0,2.011719,-9.855469,0.832031,0.515625,-0.394531,-0.90625,-0.199219,0.074219,-0.449219
479965.0,1.9375,-9.394531,1.828125,0.515625,-0.097656,0.121094,-0.367188,0.310547,-0.367188
479988.0,2.589844,-8.824219,2.402344,1.050781,0.632812,1.027344,-0.412109,0.384766,-0.310547
480018.0,2.933594,-8.898438,3.898438,1.347656,0.5625,2.632812,-0.455078,0.669922,-0.228516
480058.0,1.402344,-10.816406,5.007812,-0.246094,-1.351562,3.789062,-0.136719,0.511719,-0.228516
480089.0,1.363281,-11.234375,4.050781,-0.316406,-1.78125,2.761719,0.298828,0.199219,-0.121094
480105.0,1.554688,-9.855469,3.285156,-0.164062,-1.253906,2.332031,0.435547,0.417969,-0.003906
480129.0,1.324219,-7.75,2.097656,-0.332031,1.679688,0.628906,0.263672,0.580078,0.068359
480147.0,1.324219,-7.367188,1.636719,-0.402344,1.949219,0.40625,-0.048828,0.773438,0.068359
480168.0,1.476562,-8.09375,0.832031,-0.125,1.335938,-0.691406,-0.154297,0.792969,0.007812
480185.0,1.707031,-8.28125,0.066406,0.007812,1.191406,-1.027344,-0.203125,0.642578,-0.017578
480205.0,1.707031,-8.09375,-1.082031,0.214844,1.3125,-2.429688,-0.419922,0.513672,0.035156
480216.0,1.554688,-8.203125,-0.96875,0.152344,1.351562,-2.550781,-0.513672,0.417969,0.078125
480232.0,1.171875,-8.398438,-0.507812,0.007812,1.246094,-2.40625,-0.613281,0.294922,0.132812
480255.0,0.632812,-8.519531,0.144531,-0.703125,1.015625,-1.269531,-0.947266,0.019531,0.298828
480269.0,0.597656,-8.703125,0.183594,-0.726562,0.65625,-1.050781,-1.099609,0.046875,0.314453
480285.0,0.941406,-9.96875,-0.507812,-0.726562,0.328125,-1.46875,-1.324219,0.085938,0.3125
480308.0,2.78125,-9.585938,-1.886719,1.453125,-0.015625,-2.488281,-1.089844,-0.703125,0.179688
480325.0,2.855469,-7.898438,-2.230469,1.652344,1.101562,-2.554688,-1.240234,-0.320312,0.154297
480345.0,3.199219,-8.664062,-2.15625,1.558594,1.308594,-2.65625,-1.46875,-0.310547,-0.009766
480365.0,3.316406,-8.863281,-1.464844,2.171875,0.726562,-1.679688,-1.476562,-0.277344,-0.158203
480385.0,1.820312,-9.125,-2.117188,1.296875,0.949219,-1.351562,-1.722656,0.326172,-0.107422
480397.0,1.476562,-9.359375,-2.539062,0.117188,0.1875,-1.859375,-1.824219,0.269531,-0.111328
480425.0,2.433594,-9.585938,-2.230469,0.785156,0.339844,-1.421875,-1.945312,-0.181641,-0.171875
480448.0,1.859375,-11.238281,-0.777344,0.429688,-1.8125,0.816406,-1.800781,-0.113281,-0.197266
480465.0,2.050781,-11.617188,0.066406,0.40625,-2.226562,1.257812,-1.537109,-0.083984,-0.029297
480488.0,1.785156,-13.417969,1.945312,0.339844,-4.121094,4.140625,-1.457031,-0.099609,0.085938
480524.0,3.046875,-11.421875,3.820312,2.339844,-2.835938,6.332031,-0.9375,0.177734,-0.050781
480538.0,1.628906,-10.929688,2.941406,1.609375,-2.246094,6.5,-0.625,0.216797,-0.123047
480552.0,0.097656,-10.429688,1.484375,0.175781,-1.773438,5.683594,-0.314453,0.181641,-0.121094
480589.0,-0.707031,-10.550781,-0.429688,-1.953125,-0.996094,1.683594,0.402344,-0.195312,0.367188
480604.0,0.632812,-8.785156,-1.582031,-1.332031,-0.324219,1.253906,0.423828,-0.296875,0.410156
480628.0,1.324219,-7.710938,-2.730469,0.042969,1.523438,-0.152344,0.322266,-0.216797,0.134766
480645.0,1.210938,-8.324219,-3.226562,0.011719,1.265625,-0.480469,0.160156,-0.15625,-0.041016
480664.0,0.941406,-9.128906,-2.960938,-0.179688,0.46875,-0.558594,-0.060547,-0.126953,-0.064453
480684.0,0.558594,-9.433594,-2.882812,-0.449219,-0.109375,-0.472656,-0.113281,-0.392578,-0.046875
480704.0,0.328125,-9.664062,-2.84375,-0.90625,-0.230469,-0.25,-0.119141,-0.558594,-0.03125
480734.0,0.632812,-9.46875,-2.578125,-0.667969,-0.316406,-0.058594,-0.035156,-0.773438,0.021484
480755.0,1.054688,-9.28125,-2.386719,-0.570312,-0.238281,0.023438,-0.021484,-0.761719,0.039062
480776.0,1.746094,-9.46875,-2.117188,0.34375,-0.199219,0.5625,-0.041016,-0.548828,0.052734
480807.0,1.785156,-9.125,-1.925781,0.714844,0.121094,0.722656,0.021484,-0.125,0.046875
480838.0,0.597656,-9.511719,-1.925781,-0.457031,-0.253906,0.714844,0.052734,0.033203,0.054688
480854.0,0.519531,-9.664062,-2.0,-0.542969,-0.328125,0.699219,0.091797,0.003906,0.107422
480877.0,0.710938,-9.363281,-2.386719,-0.3125,-0.085938,0.207031,0.101562,-0.070312,0.123047
480895.0,0.75,-9.203125,-2.5,-0.304688,0.070312,0.238281,0.054688,-0.099609,0.052734
480909.0,0.789062,-9.203125,-2.652344,-0.210938,0.078125,-0.042969,0.052734,-0.113281,0.033203
480924.0,0.863281,-9.085938,-2.578125,-0.128906,0.152344,0.023438,0.044922,-0.140625,-0.005859
480948.0,0.632812,-9.46875,-2.308594,-0.351562,-0.183594,0.238281,0.064453,-0.148438,0.0
480964.0,0.710938,-9.511719,-2.230469,-0.304688,-0.222656,0.347656,0.070312,-0.154297,0.035156
480978.0,0.710938,-9.46875,-2.269531,-0.210938,-0.097656,0.332031,0.0625,-0.146484,0.050781
481018.0,0.980469,-9.207031,-2.15625,0.050781,0.101562,0.359375,-0.007812,-0.039062,0.035156
481034.0,0.824219,-9.320312,-2.269531,-0.027344,0.023438,0.285156,0.013672,-0.021484,0.015625
481057.0,0.558594,-9.433594,-2.078125,-0.363281,-0.128906,0.421875,0.033203,-0.056641,0.007812
481087.0,0.519531,-9.546875,-1.964844,-0.394531,-0.238281,0.527344,0.041016,-0.111328,0.021484
481127.0,1.171875,-9.429688,-2.460938,0.289062,-0.113281,0.007812,0.052734,-0.105469,0.039062
481144.0,1.285156,-9.203125,-2.652344,0.371094,-0.03125,-0.125,0.054688,0.019531,0.041016
481164.0,0.980469,-9.128906,-2.652344,0.296875,0.199219,-0.207031,0.035156,0.089844,0.013672
481184.0,0.863281,-9.167969,-2.691406,0.105469,0.199219,-0.207031,0.005859,0.148438,0.005859
481204.0,0.519531,-9.203125,-2.578125,-0.285156,0.167969,-0.148438,-0.044922,0.142578,0.001953
481227.0,0.480469,-9.320312,-2.460938,-0.410156,0.007812,-0.023438,-0.0625,0.125,0.017578
481238.0,0.519531,-9.363281,-2.386719,-0.371094,-0.03125,0.050781,-0.097656,0.128906,0.023438
481266.0,0.671875,-9.363281,-2.613281,-0.21875,-0.039062,-0.152344,-0.070312,0.056641,0.0
481298.0,0.902344,-9.363281,-2.421875,0.003906,-0.039062,0.039062,-0.011719,-0.003906,-0.025391
481314.0,0.710938,-9.246094,-2.421875,-0.074219,0.039062,0.0,-0.009766,0.007812,-0.015625
481336.0,0.558594,-9.28125,-2.460938,-0.347656,0.039062,0.0,-0.013672,0.033203,-0.013672
481376.0,0.863281,-9.125,-2.578125,-0.042969,0.191406,-0.109375,-0.037109,0.019531,-0.015625
481407.0,0.75,-9.433594,-2.5,-0.164062,-0.113281,-0.03125,-0.021484,0.007812,-0.039062
481424.0,0.671875,-9.46875,-2.421875,-0.210938,-0.121094,0.015625,-0.021484,-0.015625,-0.041016
481446.0,0.902344,-9.359375,-2.613281,-0.027344,-0.046875,-0.144531,-0.027344,-0.015625,-0.042969
481478.0,0.941406,-9.128906,-2.539062,0.003906,0.183594,-0.054688,-0.042969,0.035156,-0.017578
481517.0,1.019531,-9.359375,-2.539062,0.066406,-0.054688,-0.046875,-0.039062,0.033203,-0.023438
481534.0,0.980469,-9.320312,-2.539062,-0.011719,-0.046875,-0.046875,-0.037109,0.0625,-0.011719
481553.0,0.824219,-9.203125,-2.347656,0.136719,0.09375,0.070312,-0.027344,0.046875,-0.013672
481574.0,0.75,-9.246094,-2.347656,0.050781,0.09375,0.144531,-0.009766,0.041016,-0.027344
481617.0,0.941406,-9.285156,-2.460938,0.144531,0.0,0.03125,-0.009766,-0.013672,-0.009766
481634.0,0.941406,-9.207031,-2.578125,0.152344,0.046875,-0.007812,-0.003906,-0.003906,-0.003906
481657.0,1.019531,-9.207031,-2.730469,0.207031,0.078125,-0.230469,0.0,0.011719,-0.013672
481674.0,1.09375,-9.125,-2.84375,0.242188,0.113281,-0.414062,-0.017578,0.025391,-0.011719
481697.0,1.019531,-9.164062,-2.578125,0.175781,0.105469,-0.046875,-0.011719,0.027344,-0.009766
481766.0,1.019531,-9.242188,-2.578125,0.144531,0.015625,0.0,-0.007812,0.015625,0.015625
481783.0,0.980469,-9.242188,-2.804688,0.097656,-0.023438,-0.113281,0.005859,0.027344,0.005859
481804.0,0.980469,-9.207031,-2.652344,0.089844,0.015625,0.007812,0.003906,0.035156,0.011719
481836.0,0.902344,-9.324219,-2.5,-0.003906,-0.070312,0.09375,-0.003906,0.03125,0.007812
481853.0,0.824219,-9.359375,-2.730469,-0.082031,-0.070312,0.015625,-0.013672,0.078125,0.007812
481873.0,0.941406,-9.167969,-2.578125,-0.058594,0.046875,-0.058594,0.0,0.052734,0.007812
481894.0,0.902344,-9.207031,-2.421875,0.019531,0.082031,0.023438,-0.001953,0.009766,-0.005859
481913.0,0.789062,-9.320312,-2.730469,-0.097656,-0.109375,-0.050781,-0.007812,0.015625,-0.001953
481937.0,0.863281,-9.203125,-2.652344,-0.019531,0.082031,0.0625,-0.007812,-0.021484,0.007812
481953.0,0.980469,-9.242188,-2.347656,0.058594,0.007812,0.101562,0.011719,-0.042969,-0.003906
481974.0,0.980469,-9.246094,-2.5,0.058594,0.0,0.09375,0.005859,-0.03125,-0.005859
482015.0,0.902344,-9.28125,-2.460938,-0.019531,-0.03125,0.132812,-0.013672,-0.015625,-0.003906
482085.0,0.902344,-9.242188,-2.578125,-0.019531,0.007812,0.0,-0.009766,-0.001953,-0.003906
482117.0,0.941406,-9.246094,-2.460938,0.019531,0.007812,0.117188,-0.023438,0.011719,-0.011719
482132.0,0.824219,-9.320312,-2.5,-0.066406,-0.03125,0.117188,-0.009766,0.007812,-0.013672
482155.0,0.824219,-9.246094,-2.613281,-0.097656,0.007812,-0.035156,-0.005859,-0.005859,-0.007812
482186.0,0.980469,-9.203125,-2.421875,0.058594,0.046875,0.148438,-0.013672,-0.015625,0.001953
482202.0,0.941406,-9.246094,-2.539062,0.050781,0.046875,0.148438,-0.025391,-0.007812,-0.011719
482225.0,0.941406,-9.320312,-2.652344,0.011719,-0.070312,-0.074219,-0.03125,0.005859,-0.013672
482265.0,0.902344,-9.28125,-2.460938,-0.027344,-0.03125,0.125,-0.027344,-0.007812,-0.015625
482282.0,0.863281,-9.246094,-2.691406,-0.066406,-0.03125,0.015625,-0.050781,0.007812,-0.013672
482303.0,0.980469,-9.207031,-2.652344,0.003906,0.039062,-0.203125,-0.056641,-0.015625,-0.011719
482335.0,1.09375,-9.164062,-2.769531,0.148438,0.066406,-0.144531,-0.044922,-0.019531,-0.017578
482352.0,1.019531,-9.164062,-2.769531,0.109375,0.066406,-0.097656,-0.070312,-0.017578,-0.009766
482373.0,0.980469,-9.128906,-2.769531,0.074219,0.058594,-0.121094,-0.074219,-0.005859,-0.007812
482397.0,0.863281,-9.242188,-2.578125,-0.089844,-0.0625,0.140625,-0.048828,-0.009766,-0.005859
482413.0,0.824219,-9.320312,-2.613281,-0.089844,-0.101562,0.140625,-0.037109,0.0,-0.007812
482436.0,0.980469,-9.167969,-2.769531,0.035156,0.050781,-0.074219,-0.041016,-0.001953,-0.007812
482452.0,1.019531,-9.203125,-2.652344,0.109375,0.042969,0.003906,-0.044922,-0.019531,-0.003906
482476.0,0.863281,-9.207031,-2.730469,-0.082031,0.007812,-0.019531,-0.041016,-0.023438,-0.007812
482492.0,0.75,-9.246094,-2.804688,-0.15625,0.007812,-0.019531,-0.064453,-0.011719,0.003906
482522.0,0.863281,-9.203125,-2.613281,-0.1875,-0.039062,0.074219,-0.037109,-0.068359,-0.011719
482545.0,1.019531,-9.203125,-2.578125,0.089844,0.0,0.15625,-0.017578,-0.087891,-0.017578
482585.0,0.980469,-9.28125,-2.691406,0.058594,-0.078125,0.042969,-0.035156,-0.056641,-0.005859
482616.0,0.902344,-9.164062,-2.769531,-0.019531,0.035156,-0.027344,-0.025391,-0.044922,-0.013672
482633.0,0.941406,-9.167969,-2.960938,-0.019531,0.035156,-0.179688,-0.027344,-0.025391,-0.009766
482655.0,1.019531,-9.203125,-2.769531,0.089844,-0.007812,-0.011719,-0.019531,-0.058594,-0.001953
482672.0,0.980469,-9.167969,-2.613281,0.089844,0.0,0.105469,-0.015625,-0.058594,-0.001953
482692.0,0.941406,-9.125,-2.804688,0.050781,0.027344,0.066406,-0.019531,-0.052734,-0.007812
482724.0,1.019531,-9.164062,-2.960938,0.089844,0.019531,-0.179688,-0.025391,-0.019531,-0.005859
482742.0,0.863281,-9.167969,-2.730469,0.011719,-0.015625,-0.0625,-0.017578,-0.03125,-0.001953
482762.0,0.824219,-9.125,-2.730469,-0.105469,0.019531,0.105469,-0.027344,-0.013672,-0.009766
482795.0,1.054688,-9.207031,-2.960938,0.125,-0.023438,-0.148438,-0.033203,-0.015625,-0.009766
482812.0,1.054688,-9.167969,-2.769531,0.125,-0.0625,-0.070312,-0.011719,-0.064453,-0.007812
482826.0,1.019531,-9.167969,-2.730469,0.042969,0.050781,0.128906,-0.007812,-0.060547,-0.007812
482841.0,0.941406,-9.089844,-2.84375,0.042969,0.050781,0.089844,-0.033203,-0.03125,-0.011719
482865.0,0.902344,-9.164062,-2.960938,-0.035156,-0.003906,-0.125,-0.033203,-0.003906,-0.013672
482881.0,0.902344,-9.167969,-2.921875,-0.035156,-0.003906,-0.085938,-0.023438,-0.013672,-0.005859
482904.0,1.019531,-9.167969,-2.921875,0.074219,-0.011719,-0.070312,-0.025391,-0.021484,-0.003906
482936.0,0.941406,-9.207031,-2.84375,-0.011719,-0.046875,0.023438,-0.037109,-0.009766,-0.007812
482951.0,0.902344,-9.203125,-2.84375,-0.011719,-0.085938,0.070312,-0.033203,-0.011719,-0.009766
482973.0,0.980469,-9.085938,-2.921875,0.027344,0.058594,-0.039062,-0.029297,-0.009766,-0.005859
483004.0,0.941406,-9.164062,-2.921875,-0.011719,-0.019531,-0.023438,-0.035156,-0.005859,-0.003906
483021.0,0.941406,-9.242188,-2.804688,-0.050781,-0.019531,0.0625,-0.029297,0.011719,0.0
483044.0,0.863281,-9.125,-2.960938,-0.089844,0.011719,-0.046875,-0.03125,0.015625,-0.005859
483061.0,0.863281,-9.125,-2.996094,-0.089844,0.011719,-0.046875,-0.033203,-0.009766,-0.009766
483082.0,0.902344,-9.203125,-2.769531,-0.050781,-0.0625,0.117188,-0.023438,-0.029297,-0.013672
483115.0,0.980469,-9.128906,-3.152344,0.035156,0.011719,-0.222656,-0.044922,-0.015625,-0.011719
483132.0,1.019531,-9.164062,-2.84375,0.101562,0.011719,-0.097656,-0.025391,-0.060547,-0.015625
483146.0,0.980469,-9.164062,-2.730469,-0.003906,0.011719,0.207031,-0.019531,-0.058594,-0.013672
483185.0,0.863281,-9.203125,-2.84375,-0.089844,-0.0625,0.09375,-0.009766,-0.015625,-0.003906
483201.0,0.941406,-9.207031,-2.769531,-0.089844,-0.101562,0.175781,0.005859,-0.015625,-0.005859
483224.0,1.054688,-9.167969,-2.882812,0.109375,-0.019531,0.046875,0.013672,-0.017578,-0.001953
483255.0,0.980469,-9.167969,-3.152344,0.027344,-0.019531,-0.222656,-0.017578,0.0,-0.003906
483271.0,0.980469,-9.167969,-2.996094,-0.011719,-0.0625,-0.144531,-0.005859,0.001953,0.0
483295.0,1.019531,-9.085938,-2.882812,0.058594,0.058594,0.046875,0.001953,0.023438,0.0
483341.0,1.019531,-9.203125,-2.960938,0.058594,-0.019531,-0.097656,-0.003906,0.050781,0.009766
483364.0,0.941406,-9.164062,-2.804688,-0.035156,-0.019531,0.132812,0.0,0.058594,0.007812
483381.0,0.902344,-9.089844,-3.074219,-0.035156,0.058594,-0.050781,-0.005859,0.078125,0.009766
483402.0,0.941406,-9.246094,-2.960938,-0.035156,-0.019531,-0.167969,0.021484,0.052734,0.007812
483435.0,0.941406,-9.085938,-2.921875,-0.042969,0.066406,0.015625,0.021484,0.021484,0.003906
483451.0,0.902344,-9.011719,-2.921875,-0.082031,0.144531,-0.023438,0.0,0.019531,0.003906
483466.0,0.863281,-9.050781,-2.882812,-0.113281,0.019531,0.132812,0.0,0.027344,0.003906
483481.0,0.789062,-9.207031,-2.730469,-0.1875,-0.019531,0.207031,0.011719,0.007812,-0.001953
483503.0,0.902344,-9.125,-3.035156,-0.066406,0.019531,-0.113281,0.011719,0.015625,-0.001953
483544.0,1.054688,-9.28125,-2.804688,0.09375,-0.132812,0.125,0.011719,-0.050781,-0.007812
483560.0,1.054688,-9.246094,-2.769531,0.09375,-0.132812,0.199219,0.013672,-0.017578,-0.005859
483582.0,1.132812,-9.085938,-3.035156,0.171875,0.027344,-0.074219,0.005859,0.021484,-0.007812
483614.0,1.09375,-9.050781,-2.996094,0.117188,0.097656,-0.074219,0.023438,0.029297,0.001953
483631.0,1.019531,-9.085938,-2.882812,0.070312,0.066406,0.039062,0.035156,0.042969,0.015625
483660.0,1.019531,-9.125,-3.113281,0.027344,0.066406,-0.238281,0.009766,0.052734,0.021484
483683.0,1.019531,-9.164062,-2.882812,0.027344,-0.019531,0.046875,0.011719,0.0625,0.023438
483715.0,0.941406,-9.167969,-3.035156,-0.058594,-0.019531,-0.105469,0.019531,0.0625,0.011719
483731.0,1.019531,-9.125,-2.960938,0.019531,-0.019531,-0.113281,0.027344,-0.023438,0.013672
483755.0,1.054688,-9.164062,-2.691406,0.0625,-0.011719,0.230469,0.025391,-0.025391,0.015625
483771.0,0.941406,-9.125,-2.730469,0.027344,-0.011719,0.183594,0.050781,0.005859,0.015625
483793.0,0.902344,-9.167969,-2.921875,-0.082031,-0.019531,-0.023438,0.044922,0.013672,0.015625
483810.0,0.980469,-9.167969,-2.960938,-0.042969,0.066406,-0.105469,0.017578,-0.021484,0.003906
483831.0,0.902344,-9.242188,-2.652344,-0.003906,-0.046875,0.152344,0.023438,-0.023438,-0.005859
483863.0,0.980469,-9.128906,-3.152344,0.003906,0.035156,-0.277344,0.013672,-0.03125,-0.001953
483895.0,0.863281,-9.164062,-2.84375,-0.097656,-0.003906,0.023438,0.025391,-0.064453,0.007812
483910.0,1.019531,-9.125,-2.769531,-0.019531,-0.003906,-0.015625,0.039062,-0.105469,0.011719
483933.0,1.054688,-9.089844,-2.960938,0.109375,0.074219,-0.101562,0.041016,-0.082031,0.013672
483950.0,0.902344,-9.125,-2.652344,0.035156,0.074219,0.097656,0.011719,-0.037109,0.009766
483969.0,0.863281,-9.207031,-2.691406,-0.082031,-0.03125,0.207031,0.037109,0.017578,0.007812
483990.0,0.863281,-9.285156,-2.730469,-0.082031,-0.078125,0.113281,0.005859,0.035156,-0.001953
484010.0,0.789062,-9.320312,-2.730469,-0.148438,-0.15625,0.03125,-0.001953,0.054688,-0.003906
484074.0,1.019531,-9.285156,-2.921875,0.089844,-0.101562,-0.125,0.011719,-0.015625,-0.023438
484090.0,1.210938,-9.207031,-2.691406,0.203125,-0.09375,-0.09375,0.023438,-0.042969,-0.017578
484113.0,0.980469,-9.207031,-2.460938,0.035156,-0.007812,0.3125,0.033203,0.003906,-0.013672
484130.0,0.980469,-9.164062,-2.804688,0.035156,0.027344,0.113281,0.025391,0.033203,-0.013672
484145.0,1.019531,-9.125,-2.996094,0.109375,-0.007812,-0.316406,0.013672,0.033203,-0.011719
484182.0,0.902344,-9.164062,-2.652344,-0.066406,0.027344,0.097656,0.019531,0.007812,-0.003906
484200.0,0.941406,-9.125,-2.921875,-0.066406,0.0,-0.035156,0.019531,0.027344,0.003906
484220.0,1.132812,-9.167969,-2.804688,0.117188,0.074219,-0.292969,0.027344,0.017578,0.009766
484253.0,0.902344,-9.164062,-2.613281,-0.082031,0.035156,0.121094,0.025391,0.033203,0.003906
484270.0,0.902344,-9.167969,-2.804688,-0.082031,0.082031,-0.003906,0.005859,0.060547,-0.003906
484284.0,0.902344,-9.128906,-2.921875,-0.089844,0.074219,-0.226562,0.0,0.058594,-0.005859
484300.0,0.902344,-9.203125,-2.882812,-0.089844,0.035156,-0.234375,-0.007812,0.027344,-0.009766
484322.0,0.863281,-9.242188,-2.578125,-0.128906,-0.039062,0.164062,0.003906,-0.009766,-0.007812
484339.0,0.902344,-9.164062,-2.960938,-0.121094,0.035156,0.011719,-0.005859,0.019531,-0.001953
484379.0,0.941406,-9.207031,-2.578125,0.003906,-0.007812,0.105469,0.021484,-0.017578,0.0
484400.0,1.019531,-9.164062,-2.769531,-0.035156,0.027344,0.019531,0.017578,-0.003906,0.001953
484431.0,1.019531,-9.207031,-2.804688,0.042969,-0.007812,-0.054688,0.009766,0.005859,0.003906
484462.0,0.863281,-9.203125,-2.652344,-0.113281,-0.007812,0.097656,0.013672,-0.009766,0.0
484473.0,0.902344,-9.167969,-2.804688,-0.066406,0.027344,-0.054688,0.005859,-0.015625,-0.003906
484490.0,0.902344,-9.164062,-2.960938,-0.027344,0.027344,-0.125,0.0,-0.054688,-0.011719
484509.0,0.824219,-9.246094,-2.539062,-0.066406,0.027344,0.027344,0.011719,-0.089844,-0.011719
484533.0,0.980469,-9.246094,-2.613281,0.027344,-0.046875,0.144531,0.013672,-0.083984,-0.009766
484550.0,1.09375,-9.203125,-2.882812,0.066406,-0.007812,-0.054688,-0.003906,-0.050781,-0.017578
484571.0,1.132812,-9.167969,-2.691406,0.179688,0.027344,0.058594,-0.011719,-0.037109,-0.017578
484612.0,0.863281,-9.164062,-2.613281,-0.105469,0.019531,0.128906,-0.003906,-0.007812,-0.013672
484629.0,0.980469,-9.246094,-2.882812,-0.066406,0.019531,-0.21875,-0.011719,-0.054688,-0.013672
484649.0,0.980469,-9.246094,-2.539062,0.050781,-0.09375,0.050781,0.011719,-0.082031,-0.017578
484682.0,0.980469,-9.164062,-2.691406,0.011719,0.027344,0.042969,0.005859,-0.068359,-0.019531
484712.0,0.941406,-9.203125,-2.804688,-0.027344,-0.007812,-0.078125,0.001953,-0.054688,-0.013672
484729.0,0.980469,-9.164062,-2.804688,0.011719,-0.007812,-0.117188,0.005859,-0.080078,-0.013672
484753.0,0.941406,-9.207031,-2.652344,-0.019531,-0.007812,0.074219,-0.001953,-0.078125,-0.015625
484769.0,0.980469,-9.207031,-2.578125,0.019531,-0.007812,0.082031,0.0,-0.072266,-0.023438
484783.0,0.941406,-9.207031,-2.578125,-0.097656,-0.046875,0.035156,-0.011719,-0.054688,-0.021484
484799.0,0.980469,-9.203125,-2.921875,-0.058594,-0.007812,-0.15625,-0.015625,-0.064453,-0.015625
484821.0,0.941406,-9.246094,-2.578125,-0.019531,-0.046875,0.15625,-0.015625,-0.111328,-0.017578
484853.0,0.902344,-9.242188,-2.769531,-0.058594,-0.046875,-0.035156,0.007812,-0.091797,-0.021484
484893.0,0.980469,-9.167969,-2.613281,0.019531,0.035156,0.128906,-0.011719,-0.130859,-0.03125
484931.0,0.941406,-9.167969,-2.960938,-0.003906,0.027344,-0.210938,-0.017578,-0.072266,-0.023438
484949.0,0.980469,-9.167969,-2.960938,-0.003906,0.027344,-0.277344,-0.011719,-0.085938,-0.019531
484970.0,1.019531,-9.203125,-2.769531,0.035156,0.027344,-0.070312,-0.003906,-0.130859,-0.025391
485001.0,1.019531,-9.164062,-2.769531,0.066406,0.019531,0.011719,-0.005859,-0.087891,-0.013672
485033.0,1.132812,-9.164062,-2.960938,0.171875,0.019531,-0.171875,-0.015625,-0.050781,-0.017578
485048.0,1.019531,-9.242188,-2.769531,0.132812,-0.015625,-0.046875,0.005859,-0.070312,-0.019531
485072.0,0.941406,-9.207031,-2.84375,-0.027344,-0.015625,-0.039062,0.0,-0.037109,-0.005859
485089.0,1.054688,-9.167969,-2.960938,0.011719,-0.015625,-0.117188,-0.003906,-0.037109,-0.005859
485108.0,0.980469,-9.167969,-2.652344,0.085938,0.058594,0.042969,0.001953,-0.054688,-0.011719
485129.0,0.902344,-9.207031,-2.691406,0.011719,0.019531,0.160156,0.009766,-0.025391,-0.007812
485148.0,0.941406,-9.207031,-2.84375,-0.066406,0.011719,-0.070312,-0.001953,-0.011719,-0.007812
485182.0,1.09375,-9.203125,-2.769531,0.117188,-0.023438,0.042969,0.0,0.011719,-0.005859
485198.0,1.054688,-9.167969,-2.769531,0.109375,-0.023438,0.042969,0.003906,0.013672,-0.003906
485219.0,1.019531,-9.125,-2.882812,0.035156,0.011719,-0.03125,-0.011719,0.017578,-0.005859
485251.0,0.941406,-9.203125,-2.804688,-0.058594,-0.023438,0.007812,0.0,0.033203,-0.003906
485269.0,0.902344,-9.246094,-2.804688,-0.097656,-0.023438,0.007812,0.001953,0.039062,0.001953
485283.0,0.902344,-9.246094,-2.804688,-0.019531,-0.023438,0.007812,0.005859,0.023438,0.001953
485299.0,1.019531,-9.164062,-2.84375,0.019531,-0.023438,0.007812,-0.003906,0.005859,-0.003906
485321.0,1.019531,-9.207031,-2.804688,0.019531,-0.023438,0.007812,0.0,0.021484,0.0
485338.0,0.863281,-9.242188,-2.578125,-0.019531,-0.023438,0.113281,0.001953,0.052734,0.0
485359.0,0.941406,-9.128906,-2.996094,-0.097656,0.019531,-0.007812,-0.003906,0.0625,0.005859
485378.0,1.09375,-9.164062,-2.960938,-0.019531,0.058594,-0.199219,-0.011719,0.039062,0.003906
485399.0,0.980469,-9.164062,-2.730469,0.09375,0.011719,0.035156,-0.003906,0.009766,-0.001953
485421.0,0.902344,-9.207031,-2.804688,-0.105469,-0.023438,0.0,0.001953,0.033203,0.0
485438.0,0.980469,-9.167969,-2.960938,-0.027344,0.011719,-0.03125,-0.009766,0.035156,0.003906
485461.0,1.054688,-9.164062,-2.730469,0.046875,0.011719,0.089844,-0.009766,0.029297,0.007812
485478.0,0.941406,-9.246094,-2.539062,0.011719,-0.023438,0.207031,0.003906,0.056641,0.007812
485502.0,1.019531,-9.203125,-2.960938,0.019531,-0.023438,-0.15625,0.007812,0.070312,0.011719
485518.0,1.210938,-9.167969,-3.074219,0.09375,0.011719,-0.308594,-0.003906,0.039062,0.005859
485539.0,1.054688,-9.164062,-2.730469,0.203125,0.011719,0.0,0.0,0.037109,0.003906
485571.0,0.902344,-9.085938,-2.960938,-0.113281,0.089844,-0.15625,0.0,0.070312,0.009766
485589.0,0.902344,-9.164062,-2.769531,-0.113281,0.050781,-0.03125,-0.003906,0.029297,0.001953
485602.0,0.941406,-9.167969,-2.769531,-0.027344,0.011719,-0.070312,0.003906,0.033203,0.003906
485617.0,1.09375,-9.203125,-2.84375,-0.027344,0.011719,-0.039062,-0.003906,0.023438,0.005859
485641.0,1.054688,-9.242188,-2.730469,0.046875,-0.0625,0.074219,0.007812,0.015625,0.011719
485658.0,0.980469,-9.207031,-2.652344,0.011719,-0.023438,0.113281,-0.001953,0.041016,0.009766
485679.0,0.902344,-9.164062,-2.960938,-0.066406,-0.023438,0.0,-0.005859,0.044922,-0.001953
485708.0,0.902344,-9.167969,-2.691406,-0.066406,0.011719,-0.191406,0.005859,-0.011719,-0.003906
485728.0,0.863281,-9.242188,-2.652344,-0.175781,-0.023438,0.191406,0.013672,0.007812,0.003906
485758.0,1.019531,-9.164062,-2.960938,0.027344,0.011719,0.027344,0.001953,0.035156,0.003906
485781.0,1.132812,-9.164062,-2.960938,0.132812,0.011719,-0.164062,0.007812,0.021484,0.0
485798.0,1.019531,-9.28125,-2.539062,0.09375,-0.023438,0.066406,0.017578,-0.017578,-0.001953
485820.0,0.902344,-9.128906,-2.730469,-0.097656,0.050781,0.066406,0.019531,0.009766,0.003906
485837.0,0.941406,-9.128906,-2.882812,-0.097656,0.050781,0.027344,-0.007812,0.050781,-0.001953
485859.0,1.09375,-9.167969,-2.921875,0.0625,0.011719,-0.285156,-0.001953,0.001953,-0.001953
485891.0,0.980469,-9.207031,-2.652344,-0.019531,-0.023438,0.136719,0.005859,0.001953,0.003906
485907.0,1.019531,-9.128906,-2.921875,0.054688,0.050781,0.019531,-0.007812,0.044922,0.005859
485922.0,1.054688,-9.089844,-2.960938,0.019531,-0.023438,-0.09375,-0.013672,0.03125,-0.001953
485937.0,0.980469,-9.242188,-2.691406,0.019531,-0.0625,0.019531,0.009766,0.007812,-0.001953
485960.0,0.941406,-9.207031,-2.613281,-0.058594,-0.015625,0.167969,0.013672,0.009766,0.0
485992.0,1.09375,-9.242188,-2.84375,0.09375,-0.054688,-0.0625,-0.001953,0.005859,-0.001953
486031.0,0.980469,-9.125,-2.804688,-0.027344,0.058594,-0.03125,0.011719,-0.003906,0.001953
486047.0,1.019531,-9.125,-2.882812,0.011719,0.097656,-0.03125,-0.005859,0.003906,0.0
486070.0,0.980469,-9.242188,-2.691406,-0.027344,-0.054688,0.082031,0.003906,-0.007812,-0.003906
486101.0,1.019531,-9.207031,-2.804688,0.011719,0.019531,0.003906,0.005859,0.015625,0.005859
486117.0,1.019531,-9.164062,-2.769531,0.046875,-0.015625,0.003906,-0.001953,0.03125,0.001953
486140.0,1.019531,-9.207031,-2.804688,0.003906,-0.015625,-0.03125,0.011719,0.023438,-0.001953
486168.0,1.09375,-9.125,-2.882812,0.078125,0.058594,-0.109375,-0.001953,0.011719,0.001953
486210.0,0.980469,-9.207031,-2.652344,-0.042969,-0.015625,0.128906,0.005859,0.035156,0.005859
486227.0,1.019531,-9.125,-2.84375,-0.042969,-0.015625,0.050781,-0.005859,0.0625,0.001953
486247.0,1.054688,-9.242188,-2.804688,-0.003906,0.019531,-0.101562,-0.009766,0.009766,0.0
486267.0,1.054688,-9.324219,-2.730469,0.03125,-0.054688,-0.023438,0.011719,0.009766,0.009766
486287.0,0.980469,-9.128906,-2.613281,0.03125,0.019531,0.160156,-0.001953,0.035156,0.009766
486311.0,0.980469,-9.167969,-2.84375,-0.003906,0.058594,-0.1875,-0.005859,0.070312,0.003906
486327.0,0.941406,-9.203125,-2.804688,-0.003906,0.019531,-0.1875,0.005859,0.021484,0.0
486351.0,1.019531,-9.242188,-2.578125,-0.011719,-0.054688,0.1875,0.009766,0.005859,0.007812
486367.0,1.019531,-9.125,-2.652344,-0.003906,-0.015625,0.179688,-0.003906,0.035156,0.011719
486390.0,1.09375,-9.167969,-2.921875,0.078125,0.019531,-0.164062,-0.013672,0.033203,0.003906
486419.0,0.980469,-9.285156,-2.613281,-0.042969,-0.09375,0.144531,0.005859,0.019531,0.001953
486430.0,0.980469,-9.285156,-2.578125,-0.042969,-0.09375,0.179688,0.019531,0.015625,0.003906
486446.0,1.054688,-9.164062,-2.804688,-0.003906,-0.015625,0.105469,-0.007812,0.044922,0.001953
486467.0,1.09375,-9.164062,-2.84375,0.070312,0.066406,-0.210938,-0.005859,0.029297,0.005859
486490.0,0.941406,-9.285156,-2.578125,-0.082031,-0.085938,0.171875,0.005859,0.013672,0.003906
486507.0,1.019531,-9.207031,-2.730469,-0.082031,-0.046875,0.097656,0.021484,0.039062,0.009766
486528.0,1.09375,-9.128906,-2.921875,0.070312,0.066406,-0.179688,0.011719,0.025391,0.003906
486560.0,0.980469,-9.207031,-2.613281,-0.050781,-0.007812,0.136719,-0.001953,0.005859,0.003906
486576.0,0.941406,-9.207031,-2.652344,-0.128906,-0.046875,0.136719,0.021484,0.039062,0.009766
486599.0,1.019531,-9.125,-2.996094,-0.003906,0.066406,-0.253906,0.009766,0.039062,0.005859
486631.0,1.054688,-9.246094,-2.613281,0.03125,-0.046875,0.128906,0.0,-0.001953,0.003906
486670.0,1.054688,-9.207031,-2.769531,0.03125,-0.007812,-0.027344,0.009766,0.021484,0.003906
486686.0,1.019531,-9.164062,-2.882812,-0.003906,-0.007812,-0.035156,0.0,0.023438,0.003906
486708.0,1.09375,-9.207031,-2.730469,0.070312,-0.007812,0.011719,-0.005859,0.017578,0.003906
486739.0,0.980469,-9.203125,-2.691406,-0.050781,-0.007812,0.042969,0.001953,0.0,0.003906
486749.0,0.980469,-9.125,-2.804688,-0.050781,0.066406,-0.070312,-0.001953,0.021484,0.011719
486766.0,1.019531,-9.164062,-2.882812,-0.003906,0.027344,-0.179688,-0.003906,0.009766,0.003906
486786.0,1.054688,-9.167969,-2.613281,0.03125,-0.007812,0.011719,0.007812,-0.007812,0.005859
486810.0,1.054688,-9.207031,-2.578125,0.03125,-0.007812,0.164062,0.009766,-0.009766,0.003906
486826.0,0.980469,-9.125,-2.804688,-0.003906,0.027344,0.089844,-0.005859,0.033203,0.007812
486849.0,1.132812,-9.167969,-2.804688,0.101562,0.027344,-0.0625,-0.011719,0.009766,0.003906
486866.0,0.941406,-9.320312,-2.5,-0.011719,-0.007812,0.089844,0.017578,-0.015625,0.005859
486886.0,0.902344,-9.203125,-2.578125,-0.160156,-0.078125,0.273438,0.011719,0.044922,0.007812
486906.0,0.941406,-9.125,-2.921875,-0.113281,0.0,0.148438,-0.015625,0.03125,0.001953
486926.0,1.09375,-9.207031,-2.691406,0.070312,0.0,-0.148438,-0.001953,-0.029297,-0.005859
486951.0,0.902344,-9.28125,-2.539062,-0.113281,-0.078125,0.1875,0.013672,-0.025391,-0.005859
486990.0,1.019531,-9.128906,-2.804688,0.011719,0.074219,-0.078125,-0.011719,-0.007812,-0.005859
487006.0,1.054688,-9.246094,-2.539062,0.039062,0.027344,0.113281,0.015625,-0.035156,-0.007812
487028.0,1.019531,-9.203125,-2.769531,0.003906,-0.007812,-0.058594,0.007812,-0.009766,-0.001953
487046.0,1.09375,-9.207031,-2.804688,0.039062,-0.007812,-0.058594,-0.005859,-0.013672,0.003906
487059.0,1.132812,-9.207031,-2.804688,0.117188,-0.007812,-0.011719,-0.005859,-0.019531,-0.003906
487076.0,1.09375,-9.164062,-2.84375,0.085938,-0.007812,-0.050781,0.009766,-0.017578,-0.007812
487099.0,1.019531,-9.207031,-2.730469,-0.003906,-0.007812,-0.003906,0.003906,-0.029297,-0.007812
487137.0,1.09375,-9.207031,-2.730469,0.03125,-0.007812,-0.078125,0.009766,-0.015625,0.003906
487155.0,1.09375,-9.207031,-2.691406,0.070312,0.035156,0.035156,0.011719,-0.007812,0.003906
487176.0,1.054688,-9.203125,-2.730469,0.03125,-0.039062,0.027344,0.007812,0.011719,0.005859
487208.0,1.019531,-9.167969,-2.804688,-0.011719,0.035156,-0.078125,0.003906,0.015625,0.005859
487238.0,0.980469,-9.164062,-2.691406,-0.050781,0.035156,0.035156,0.007812,-0.015625,0.0
487270.0,0.980469,-9.167969,-2.84375,-0.050781,0.035156,-0.117188,0.001953,-0.009766,0.0
487309.0,1.019531,-9.242188,-2.578125,0.003906,-0.046875,0.164062,-0.011719,-0.046875,-0.003906
487325.0,0.941406,-9.242188,-2.691406,-0.074219,-0.046875,0.128906,-0.007812,-0.013672,0.005859
487348.0,1.019531,-9.207031,-2.804688,0.003906,-0.007812,-0.0625,0.0,-0.029297,-0.003906
487365.0,0.980469,-9.203125,-2.730469,0.003906,-0.007812,0.011719,0.001953,-0.056641,-0.007812
487385.0,1.09375,-9.246094,-2.691406,0.046875,-0.046875,0.011719,0.005859,-0.041016,0.005859
487405.0,1.019531,-9.203125,-2.769531,0.085938,-0.046875,0.050781,0.013672,-0.033203,0.005859
487425.0,1.054688,-9.128906,-2.769531,0.09375,0.027344,-0.0625,0.001953,-0.046875,-0.007812
487449.0,1.054688,-9.164062,-2.804688,0.054688,0.035156,-0.140625,0.0,-0.03125,-0.003906
487465.0,1.054688,-9.207031,-2.769531,0.09375,0.027344,-0.09375,-0.009766,-0.041016,0.003906
487489.0,0.980469,-9.203125,-2.691406,-0.027344,-0.007812,0.058594,-0.003906,-0.027344,0.005859
487505.0,0.941406,-9.207031,-2.84375,-0.066406,-0.007812,-0.019531,0.003906,-0.035156,-0.001953
487526.0,1.054688,-9.164062,-2.921875,0.054688,0.027344,-0.164062,-0.001953,-0.037109,0.0
487558.0,1.019531,-9.164062,-2.613281,0.027344,0.027344,0.160156,-0.013672,-0.087891,0.009766
487575.0,0.941406,-9.246094,-2.652344,-0.011719,-0.007812,0.160156,0.0,-0.058594,0.007812
487598.0,1.132812,-9.164062,-2.882812,0.148438,0.019531,-0.109375,-0.013672,-0.025391,0.013672
487615.0,1.171875,-9.125,-2.730469,0.1875,0.019531,-0.023438,-0.013672,-0.025391,0.007812
487636.0,0.902344,-9.207031,-2.730469,0.035156,-0.015625,0.128906,-0.003906,0.015625,0.003906
487668.0,1.054688,-9.203125,-2.804688,0.0625,-0.015625,-0.023438,-0.009766,0.021484,0.009766
487685.0,0.980469,-9.203125,-2.730469,0.070312,-0.054688,0.011719,-0.015625,0.005859,0.003906
487715.0,0.863281,-9.167969,-2.730469,-0.082031,-0.007812,0.011719,-0.003906,0.003906,0.007812
487737.0,0.980469,-9.246094,-2.769531,-0.003906,-0.046875,0.011719,0.003906,-0.009766,0.013672
487769.0,1.019531,-9.164062,-2.769531,0.042969,0.027344,0.003906,0.005859,-0.013672,0.007812
487785.0,0.902344,-9.207031,-2.691406,0.011719,-0.007812,0.003906,-0.007812,0.011719,0.007812
487808.0,0.863281,-9.242188,-2.613281,-0.105469,-0.046875,0.152344,0.017578,0.033203,0.003906
487825.0,0.902344,-9.242188,-2.882812,-0.105469,-0.046875,0.035156,0.0,0.013672,0.001953
487846.0,0.941406,-9.164062,-2.730469,-0.027344,0.027344,0.027344,0.0,-0.013672,0.005859
487878.0,0.941406,-9.164062,-2.804688,-0.011719,0.035156,-0.046875,0.009766,0.011719,0.007812
487894.0,0.941406,-9.167969,-2.84375,-0.011719,0.035156,-0.054688,-0.009766,0.003906,-0.005859
487949.0,0.863281,-9.207031,-2.730469,-0.089844,-0.007812,0.027344,0.011719,0.007812,0.015625
487965.0,0.863281,-9.203125,-2.84375,-0.089844,0.027344,-0.085938,0.005859,0.007812,0.007812
487987.0,0.980469,-9.242188,-2.691406,0.035156,-0.039062,0.066406,0.009766,-0.046875,0.005859
488004.0,0.941406,-9.203125,-2.730469,0.003906,-0.039062,0.019531,0.011719,-0.005859,0.003906
488025.0,0.863281,-9.203125,-2.769531,-0.074219,0.0,0.019531,0.011719,0.037109,0.0
488057.0,0.980469,-9.164062,-2.804688,0.042969,0.035156,-0.054688,0.001953,0.015625,-0.007812
488074.0,0.941406,-9.203125,-2.804688,0.003906,-0.046875,-0.046875,0.009766,-0.009766,0.009766
488129.0,0.941406,-9.207031,-2.84375,0.003906,0.0,-0.085938,0.011719,-0.005859,-0.001953
488184.0,0.863281,-9.203125,-2.769531,-0.066406,-0.046875,0.144531,-0.003906,-0.003906,0.0
488204.0,0.902344,-9.207031,-2.804688,0.050781,-0.007812,-0.125,0.001953,-0.013672,0.005859
488224.0,0.902344,-9.203125,-2.613281,-0.027344,-0.007812,-0.039062,0.001953,-0.005859,0.0
488245.0,0.863281,-9.246094,-2.730469,-0.066406,-0.046875,0.179688,0.015625,0.015625,0.0
488267.0,0.941406,-9.285156,-2.578125,0.019531,-0.078125,0.171875,0.005859,0.017578,0.003906
488276.0,0.941406,-9.285156,-2.613281,0.019531,-0.078125,0.136719,0.017578,-0.001953,-0.005859
488307.0,0.941406,-9.246094,-2.539062,0.019531,-0.039062,0.203125,0.0,0.017578,-0.007812
488324.0,0.902344,-9.207031,-2.691406,-0.027344,-0.039062,0.082031,0.005859,0.050781,-0.001953
488344.0,0.902344,-9.246094,-2.730469,0.011719,0.0,-0.070312,0.019531,0.013672,-0.003906
488363.0,0.941406,-9.207031,-2.882812,-0.027344,-0.03125,-0.011719,0.001953,-0.025391,-0.003906
488384.0,1.019531,-9.164062,-2.613281,0.089844,0.050781,-0.003906,-0.005859,-0.017578,-0.005859
488434.0,0.902344,-9.242188,-2.769531,0.003906,0.042969,-0.085938,0.009766,-0.017578,-0.007812
488455.0,0.980469,-9.207031,-2.652344,0.082031,-0.03125,-0.011719,0.001953,-0.011719,-0.003906
488487.0,0.980469,-9.164062,-2.804688,0.042969,0.042969,-0.085938,-0.003906,0.029297,0.001953
488504.0,0.980469,-9.203125,-2.804688,0.035156,0.007812,-0.085938,0.009766,0.001953,-0.001953
488523.0,0.980469,-9.246094,-2.578125,-0.003906,0.007812,0.074219,0.017578,-0.003906,-0.001953
488545.0,0.941406,-9.242188,-2.691406,0.035156,-0.03125,0.148438,0.005859,0.019531,0.0
488564.0,1.054688,-9.167969,-2.882812,0.109375,0.007812,-0.210938,0.0,0.011719,0.0
488588.0,1.019531,-9.167969,-2.804688,0.019531,0.082031,0.027344,0.009766,0.005859,0.0
488604.0,0.824219,-9.207031,-2.613281,-0.058594,0.042969,0.027344,0.007812,0.015625,-0.005859
488627.0,0.941406,-9.203125,-2.921875,-0.019531,0.007812,-0.203125,0.0,0.001953,0.001953
488644.0,1.054688,-9.207031,-2.84375,0.019531,0.007812,-0.164062,0.007812,-0.027344,0.003906
488663.0,0.941406,-9.246094,-2.539062,0.09375,-0.03125,0.1875,0.007812,-0.029297,0.0
488684.0,0.941406,-9.246094,-2.769531,-0.011719,-0.070312,0.066406,0.001953,0.009766,0.003906
488714.0,1.019531,-9.164062,-2.769531,0.09375,0.007812,-0.125,0.001953,-0.015625,-0.001953
488729.0,0.941406,-9.167969,-2.652344,-0.097656,0.042969,0.105469,0.007812,-0.009766,-0.001953
488767.0,1.019531,-9.203125,-2.84375,0.058594,0.007812,-0.117188,-0.001953,-0.003906,0.003906
488807.0,0.902344,-9.246094,-2.691406,-0.058594,-0.03125,0.035156,0.007812,-0.009766,0.007812
488823.0,0.941406,-9.203125,-2.730469,-0.097656,-0.03125,-0.003906,0.005859,0.003906,0.005859
488843.0,1.019531,-9.246094,-2.730469,0.058594,-0.03125,-0.042969,0.013672,0.027344,0.0
488876.0,0.902344,-9.242188,-2.613281,-0.058594,-0.03125,0.105469,0.001953,0.021484,0.003906
488907.0,0.980469,-9.242188,-2.804688,0.019531,-0.03125,-0.09375,0.003906,0.027344,-0.003906
488923.0,1.019531,-9.246094,-2.730469,0.058594,-0.03125,-0.09375,0.009766,0.001953,-0.001953
488946.0,0.980469,-9.207031,-2.578125,0.019531,0.007812,0.132812,0.005859,-0.003906,-0.003906
488963.0,0.902344,-9.207031,-2.730469,-0.058594,0.007812,0.058594,-0.001953,0.017578,-0.001953
488986.0,1.054688,-9.164062,-2.804688,0.09375,0.042969,-0.09375,0.001953,-0.005859,-0.003906
489003.0,0.941406,-9.246094,-2.652344,0.011719,0.007812,0.019531,0.005859,0.0,0.0
489048.0,0.941406,-9.246094,-2.769531,0.058594,-0.03125,-0.019531,0.001953,0.007812,0.003906
489063.0,1.054688,-9.246094,-2.613281,0.058594,0.007812,0.019531,0.013672,-0.005859,-0.003906
489087.0,0.980469,-9.164062,-2.804688,0.019531,0.050781,-0.101562,0.001953,0.001953,0.011719
489103.0,0.980469,-9.167969,-2.769531,0.058594,0.089844,-0.066406,0.001953,-0.019531,0.0
489155.0,0.980469,-9.246094,-2.84375,0.019531,-0.023438,-0.148438,-0.003906,0.027344,-0.001953
489172.0,1.09375,-9.167969,-2.804688,0.09375,0.015625,-0.148438,-0.003906,-0.015625,-0.003906
489196.0,0.863281,-9.242188,-2.613281,-0.097656,-0.023438,0.089844,0.001953,-0.025391,-0.003906
489212.0,0.902344,-9.207031,-2.730469,-0.097656,-0.023438,0.050781,-0.001953,0.023438,0.0
489232.0,1.054688,-9.203125,-2.730469,-0.019531,-0.023438,-0.066406,-0.003906,0.013672,0.003906
489252.0,1.019531,-9.203125,-2.613281,0.132812,0.050781,0.050781,0.009766,-0.013672,-0.003906
489272.0,0.941406,-9.246094,-2.652344,-0.027344,0.015625,0.050781,0.0,-0.005859,-0.005859
489305.0,0.980469,-9.242188,-2.730469,0.003906,-0.023438,-0.035156,0.009766,0.021484,0.005859
489323.0,1.054688,-9.242188,-2.691406,0.078125,0.015625,-0.035156,0.007812,0.003906,0.0
489337.0,1.019531,-9.203125,-2.613281,-0.074219,0.050781,0.042969,0.007812,-0.001953,0.0
489352.0,0.824219,-9.207031,-2.652344,-0.113281,0.050781,0.042969,-0.013672,0.009766,-0.003906
489375.0,1.019531,-9.164062,-2.882812,0.042969,0.050781,-0.1875,-0.023438,-0.019531,-0.005859
489392.0,1.019531,-9.203125,-2.652344,0.050781,0.015625,0.003906,0.001953,-0.007812,-0.001953
489413.0,0.902344,-9.242188,-2.652344,0.011719,0.015625,0.042969,-0.003906,0.009766,-0.001953
489446.0,1.054688,-9.207031,-2.84375,0.085938,0.015625,-0.148438,-0.005859,0.025391,-0.001953
489463.0,1.09375,-9.203125,-2.769531,0.125,0.015625,-0.1875,0.0,0.0,-0.003906
489483.0,0.980469,-9.246094,-2.578125,0.050781,0.015625,0.125,0.0,0.007812,-0.001953
489502.0,0.902344,-9.203125,-2.652344,0.003906,-0.023438,0.125,0.001953,0.03125,-0.005859
489522.0,0.941406,-9.207031,-2.769531,-0.042969,0.015625,0.003906,-0.003906,0.041016,-0.007812
489562.0,0.941406,-9.207031,-2.5,-0.003906,-0.03125,0.082031,0.001953,0.027344,-0.005859
489586.0,0.902344,-9.203125,-2.769531,-0.082031,0.007812,-0.074219,0.001953,0.019531,-0.005859
489603.0,0.980469,-9.207031,-2.84375,-0.003906,0.007812,-0.109375,-0.001953,0.015625,-0.007812
489632.0,1.019531,-9.242188,-2.578125,0.070312,0.007812,0.042969,0.003906,0.003906,-0.003906
489655.0,0.941406,-9.242188,-2.730469,-0.050781,-0.03125,-0.035156,0.005859,0.005859,-0.003906
489672.0,0.980469,-9.207031,-2.84375,-0.011719,0.007812,-0.109375,-0.015625,0.003906,-0.005859
489699.0,1.019531,-9.167969,-2.730469,0.027344,0.042969,-0.035156,-0.005859,-0.003906,-0.001953
489726.0,0.980469,-9.246094,-2.539062,-0.011719,-0.070312,0.125,0.011719,0.023438,0.005859
489741.0,1.054688,-9.164062,-2.921875,0.027344,-0.03125,-0.101562,-0.001953,0.017578,0.003906
489765.0,1.019531,-9.203125,-2.613281,0.019531,0.007812,0.089844,-0.009766,-0.017578,0.0
489782.0,0.902344,-9.242188,-2.652344,-0.019531,-0.03125,0.125,0.001953,0.015625,0.005859
489802.0,0.941406,-9.167969,-2.84375,-0.097656,0.042969,-0.140625,-0.003906,0.027344,0.003906
489823.0,0.980469,-9.167969,-2.769531,-0.058594,0.042969,-0.132812,-0.003906,-0.009766,0.001953
489835.0,0.980469,-9.203125,-2.804688,0.0625,-0.03125,-0.019531,-0.001953,-0.03125,-0.001953
489852.0,1.019531,-9.203125,-2.613281,0.027344,-0.03125,0.066406,-0.011719,-0.023438,0.003906
489874.0,0.980469,-9.207031,-2.769531,-0.003906,0.0,-0.042969,-0.021484,0.001953,0.007812
489905.0,0.941406,-9.242188,-2.691406,-0.050781,-0.039062,0.035156,0.005859,0.003906,-0.005859
489922.0,0.980469,-9.285156,-2.652344,-0.011719,-0.109375,0.066406,-0.003906,-0.003906,0.0
489945.0,1.054688,-9.203125,-2.730469,0.0625,0.0,-0.011719,-0.021484,0.007812,0.005859
489962.0,1.019531,-9.203125,-2.613281,0.070312,-0.039062,0.113281,-0.001953,0.007812,0.001953
489981.0,0.902344,-9.167969,-2.804688,-0.089844,0.042969,-0.011719,-0.005859,0.011719,0.0
490001.0,1.019531,-9.207031,-2.730469,-0.089844,0.042969,-0.085938,0.0,-0.007812,0.005859
490021.0,1.019531,-9.207031,-2.691406,-0.003906,0.007812,0.066406,-0.009766,0.007812,-0.001953
490046.0,1.054688,-9.242188,-2.691406,0.0625,-0.03125,0.027344,-0.009766,0.017578,0.0
490062.0,0.980469,-9.246094,-2.769531,0.027344,0.007812,-0.011719,-0.013672,0.019531,-0.001953
490084.0,0.980469,-9.242188,-2.730469,-0.011719,-0.039062,-0.011719,-0.013672,0.007812,-0.003906
490104.0,0.980469,-9.203125,-2.730469,-0.011719,0.0,-0.011719,-0.001953,-0.009766,0.0
490122.0,1.019531,-9.167969,-2.691406,0.027344,0.035156,0.027344,-0.013672,-0.003906,0.0
490154.0,1.019531,-9.167969,-2.804688,0.027344,0.042969,-0.085938,-0.003906,0.009766,0.0
490194.0,0.980469,-9.207031,-2.652344,-0.019531,0.0,0.074219,-0.009766,0.001953,0.001953
490225.0,0.980469,-9.203125,-2.804688,-0.019531,0.0,-0.070312,-0.009766,0.009766,0.005859
490241.0,1.019531,-9.203125,-2.769531,0.019531,0.0,-0.0625,-0.003906,0.003906,0.001953
490264.0,0.941406,-9.164062,-2.730469,-0.058594,0.035156,0.011719,-0.001953,0.009766,0.001953
490301.0,1.019531,-9.242188,-2.652344,0.019531,-0.039062,0.011719,0.0,0.003906,0.001953
490321.0,1.019531,-9.207031,-2.691406,0.019531,-0.039062,0.089844,-0.001953,0.011719,0.007812
490341.0,0.980469,-9.203125,-2.730469,0.019531,0.035156,0.011719,-0.003906,0.011719,0.0
490365.0,0.941406,-9.207031,-2.769531,-0.058594,0.0,-0.027344,0.001953,0.011719,-0.001953
490381.0,0.941406,-9.203125,-2.691406,-0.058594,-0.039062,0.050781,0.005859,-0.001953,0.0
490473.0,1.019531,-9.207031,-2.691406,0.027344,0.0,0.042969,0.001953,-0.023438,0.0
490491.0,0.902344,-9.203125,-2.613281,-0.050781,0.0,0.15625,0.007812,-0.005859,0.0
490514.0,0.863281,-9.242188,-2.882812,-0.121094,-0.046875,-0.148438,-0.009766,-0.003906,-0.007812
490531.0,0.980469,-9.207031,-2.960938,-0.042969,-0.039062,-0.1875,-0.013672,-0.003906,-0.013672
490552.0,1.019531,-9.242188,-2.460938,0.070312,0.0,0.082031,-0.011719,-0.052734,-0.009766
490583.0,0.980469,-9.125,-2.921875,-0.003906,0.074219,-0.179688,-0.009766,-0.015625,-0.001953
490601.0,1.171875,-9.164062,-2.804688,0.109375,0.027344,-0.253906,-0.009766,-0.060547,-0.005859
490615.0,1.132812,-9.203125,-2.613281,0.035156,-0.007812,0.320312,0.0,-0.064453,-0.009766
490630.0,0.902344,-9.203125,-2.578125,-0.042969,-0.046875,0.320312,-0.001953,-0.003906,-0.007812
490653.0,1.019531,-9.203125,-2.84375,0.035156,-0.007812,-0.109375,-0.013672,0.011719,-0.003906
490684.0,0.980469,-9.363281,-2.460938,-0.003906,-0.164062,0.273438,-0.007812,-0.035156,-0.005859
490724.0,0.980469,-9.207031,-2.84375,-0.003906,0.0,-0.117188,-0.013672,0.03125,0.007812
490755.0,1.09375,-9.207031,-2.691406,0.15625,0.007812,0.066406,0.011719,-0.001953,0.005859
490770.0,1.019531,-9.203125,-2.652344,0.117188,0.007812,0.066406,0.009766,0.013672,0.003906
490794.0,0.902344,-9.167969,-2.921875,-0.089844,0.042969,-0.210938,0.005859,0.039062,0.005859
490810.0,0.980469,-9.085938,-3.074219,-0.011719,0.121094,-0.285156,0.0,0.025391,0.001953
490833.0,1.019531,-9.167969,-2.804688,0.027344,0.042969,-0.085938,0.011719,0.003906,-0.003906
490865.0,1.054688,-9.207031,-3.035156,0.0625,0.0,-0.308594,0.009766,-0.021484,-0.003906
490881.0,1.09375,-9.125,-2.960938,0.101562,0.035156,-0.261719,0.005859,-0.054688,-0.003906
490901.0,1.054688,-9.089844,-2.882812,0.070312,0.105469,-0.125,0.003906,-0.052734,-0.005859
490933.0,0.980469,-9.207031,-2.84375,-0.011719,-0.015625,-0.070312,-0.011719,-0.046875,-0.011719
490950.0,0.902344,-9.167969,-2.691406,-0.050781,-0.015625,-0.015625,-0.029297,-0.066406,-0.003906
490973.0,0.902344,-9.242188,-2.613281,-0.089844,-0.0625,0.191406,-0.025391,-0.066406,-0.005859
490990.0,0.902344,-9.242188,-2.539062,-0.089844,-0.070312,0.226562,-0.013672,-0.017578,-0.007812
491011.0,1.019531,-9.324219,-2.539062,-0.042969,-0.148438,0.335938,0.001953,0.017578,-0.005859
491030.0,0.980469,-9.285156,-2.578125,0.035156,-0.101562,0.175781,0.011719,0.011719,-0.001953
491051.0,0.941406,-9.285156,-2.613281,0.035156,-0.101562,0.234375,0.011719,0.027344,-0.005859
491081.0,0.980469,-9.203125,-2.804688,-0.003906,-0.007812,-0.046875,0.007812,0.013672,-0.001953
491113.0,1.019531,-9.164062,-2.882812,0.035156,0.035156,-0.140625,0.015625,0.015625,-0.001953
491130.0,1.09375,-9.128906,-2.921875,0.070312,0.074219,-0.179688,-0.003906,0.009766,0.0
491152.0,0.941406,-9.164062,-2.691406,-0.050781,0.035156,0.050781,-0.003906,0.011719,-0.005859
491170.0,1.054688,-9.125,-2.921875,-0.050781,0.035156,-0.027344,0.003906,0.003906,0.003906
491191.0,1.132812,-9.128906,-2.804688,0.101562,0.074219,-0.171875,-0.005859,-0.015625,-0.005859
491223.0,0.941406,-9.203125,-2.691406,-0.058594,0.0,0.058594,0.0,0.007812,-0.007812
491253.0,1.09375,-9.242188,-2.84375,0.085938,-0.054688,-0.085938,-0.013672,-0.013672,-0.017578
491270.0,1.171875,-9.28125,-2.730469,0.125,-0.09375,-0.011719,0.007812,-0.050781,-0.019531
491292.0,1.054688,-9.207031,-2.613281,0.039062,-0.007812,0.136719,0.011719,-0.050781,-0.013672
491309.0,1.09375,-9.167969,-2.730469,0.078125,0.035156,0.097656,0.011719,-0.03125,-0.007812
491333.0,1.132812,-9.203125,-2.613281,0.109375,-0.007812,0.128906,0.011719,-0.007812,-0.005859
491350.0,1.132812,-9.203125,-2.613281,0.101562,-0.007812,0.121094,0.015625,0.052734,-0.003906
491370.0,1.171875,-9.203125,-2.804688,0.09375,0.027344,0.003906,0.009766,0.082031,0.0
491401.0,1.132812,-9.363281,-2.691406,0.070312,-0.15625,0.027344,0.001953,0.037109,0.009766
491432.0,1.054688,-9.320312,-2.613281,-0.007812,-0.109375,0.089844,0.033203,0.033203,0.017578
491449.0,1.171875,-9.207031,-2.882812,0.070312,-0.023438,-0.035156,0.037109,0.082031,0.021484
491472.0,0.980469,-9.207031,-2.652344,-0.089844,0.015625,0.027344,0.039062,0.064453,0.019531
491489.0,0.710938,-9.203125,-2.5,-0.167969,0.058594,0.132812,0.035156,0.089844,0.021484
491510.0,0.558594,-9.085938,-3.035156,-0.511719,0.136719,-0.097656,0.025391,0.078125,0.017578
491544.0,0.824219,-9.246094,-2.5,-0.207031,-0.015625,0.15625,0.054688,-0.070312,0.013672
491573.0,1.09375,-9.203125,-2.769531,0.085938,0.03125,-0.113281,0.044922,-0.044922,0.005859
491589.0,1.09375,-9.242188,-2.84375,0.09375,0.066406,-0.234375,0.023438,0.013672,-0.007812
491613.0,0.902344,-9.164062,-2.578125,-0.089844,0.066406,0.070312,0.035156,-0.009766,-0.003906
491629.0,0.824219,-9.207031,-2.84375,-0.121094,0.03125,-0.042969,0.027344,0.009766,0.003906
491652.0,0.941406,-9.167969,-2.960938,-0.035156,0.066406,-0.304688,0.029297,0.007812,0.007812
491669.0,1.09375,-9.125,-2.769531,0.078125,0.105469,-0.226562,0.035156,0.021484,0.005859
491690.0,1.246094,-9.125,-2.960938,0.203125,0.144531,-0.265625,0.011719,0.064453,0.0
491722.0,0.980469,-9.125,-2.691406,-0.003906,0.097656,-0.011719,0.013672,0.066406,0.0
491753.0,0.789062,-9.164062,-2.769531,-0.25,-0.03125,-0.082031,-0.017578,0.091797,0.0
491769.0,0.75,-9.324219,-2.652344,-0.28125,-0.070312,-0.027344,-0.015625,0.068359,0.007812
491792.0,0.980469,-9.363281,-2.269531,-0.011719,-0.15625,0.441406,-0.003906,0.015625,0.0
491809.0,1.132812,-9.359375,-2.269531,0.101562,-0.148438,0.472656,0.003906,0.025391,-0.013672
491823.0,1.132812,-9.324219,-2.308594,0.179688,-0.070312,0.308594,-0.001953,0.052734,-0.019531
491839.0,1.132812,-9.324219,-2.613281,0.171875,-0.101562,0.109375,0.013672,0.042969,-0.017578
491862.0,1.09375,-9.320312,-2.386719,0.085938,-0.09375,0.269531,0.046875,0.023438,-0.005859
491878.0,0.980469,-9.242188,-2.386719,0.003906,-0.007812,0.300781,0.041016,0.099609,0.003906
491899.0,0.980469,-9.207031,-2.613281,-0.074219,0.066406,0.011719,0.033203,0.138672,0.0
491919.0,1.054688,-9.285156,-2.652344,-0.042969,0.039062,0.003906,0.042969,0.121094,-0.001953
491933.0,1.054688,-9.285156,-2.613281,0.101562,-0.03125,-0.027344,0.046875,0.113281,0.003906
491948.0,1.171875,-9.246094,-2.652344,0.140625,-0.03125,-0.074219,0.041016,0.082031,0.009766
491971.0,1.246094,-9.164062,-2.652344,0.199219,0.082031,-0.082031,0.035156,0.09375,0.009766
491989.0,1.171875,-9.207031,-2.5,0.191406,0.082031,-0.015625,0.03125,0.138672,0.009766
492009.0,1.132812,-9.207031,-2.804688,-0.015625,0.054688,-0.058594,0.017578,0.160156,0.011719
492041.0,1.246094,-9.203125,-2.652344,0.152344,0.046875,-0.097656,0.015625,0.132812,0.015625
492071.0,1.132812,-9.203125,-2.460938,0.023438,0.046875,0.085938,0.025391,0.144531,0.029297
492088.0,1.132812,-9.164062,-2.613281,0.0625,0.082031,0.046875,0.001953,0.193359,0.011719
492112.0,1.054688,-9.246094,-2.578125,-0.070312,-0.007812,-0.03125,0.001953,0.173828,0.009766
492129.0,0.941406,-9.390625,-2.539062,-0.113281,-0.117188,0.0,0.007812,0.113281,0.013672
492143.0,0.941406,-9.390625,-2.5,-0.230469,-0.152344,0.117188,0.011719,0.099609,0.021484
492158.0,1.171875,-9.246094,-2.5,-0.113281,-0.070312,0.078125,0.001953,0.087891,0.019531
492182.0,1.210938,-9.207031,-2.347656,0.078125,0.046875,0.175781,0.023438,0.105469,0.017578
492199.0,1.246094,-9.246094,-2.421875,0.113281,0.007812,0.136719,0.013672,0.167969,0.011719
492213.0,1.246094,-9.242188,-2.460938,0.070312,-0.03125,0.0,0.021484,0.15625,0.009766
492228.0,1.054688,-9.363281,-2.539062,-0.007812,-0.03125,0.0,0.029297,0.095703,0.011719
492251.0,1.019531,-9.285156,-2.386719,-0.128906,-0.023438,0.105469,0.033203,0.097656,0.013672
492268.0,1.054688,-9.203125,-2.421875,-0.128906,0.023438,0.089844,0.011719,0.09375,0.003906
492291.0,0.980469,-9.128906,-2.769531,-0.167969,0.136719,-0.292969,-0.011719,0.111328,0.005859
492330.0,1.09375,-9.242188,-2.308594,-0.085938,0.007812,0.136719,0.005859,0.027344,0.003906
492361.0,1.246094,-9.28125,-2.578125,0.105469,-0.03125,-0.101562,-0.009766,0.066406,-0.001953
492391.0,1.246094,-9.28125,-2.308594,0.105469,-0.03125,0.175781,-0.011719,0.019531,0.0
492401.0,1.171875,-9.285156,-2.269531,0.03125,-0.03125,0.214844,-0.011719,-0.001953,-0.007812
492418.0,1.09375,-9.359375,-2.308594,-0.046875,-0.070312,0.246094,0.005859,0.070312,-0.005859
492438.0,0.980469,-9.242188,-2.386719,-0.09375,0.007812,0.167969,-0.011719,0.050781,-0.013672
492462.0,1.132812,-9.28125,-2.539062,-0.015625,-0.023438,-0.078125,-0.017578,0.015625,-0.007812
492478.0,1.171875,-9.285156,-2.308594,0.0625,-0.023438,0.082031,0.009766,-0.068359,-0.011719
492501.0,1.054688,-9.285156,-2.269531,-0.09375,-0.023438,0.191406,0.017578,-0.035156,-0.007812
492518.0,1.132812,-9.242188,-2.578125,-0.015625,0.054688,0.0,-0.011719,-0.060547,-0.011719
492541.0,1.171875,-9.359375,-2.421875,0.023438,-0.101562,0.046875,0.003906,-0.113281,-0.015625
492558.0,1.171875,-9.324219,-2.230469,0.070312,-0.101562,0.160156,0.009766,-0.095703,-0.007812
492578.0,1.210938,-9.164062,-2.5,-0.007812,0.054688,0.082031,-0.001953,-0.052734,-0.003906
492611.0,1.285156,-9.246094,-2.730469,0.144531,0.015625,-0.261719,0.0,-0.082031,-0.015625
492628.0,1.246094,-9.28125,-2.539062,0.105469,-0.023438,-0.144531,0.011719,-0.103516,-0.005859
492647.0,1.285156,-9.125,-2.539062,0.113281,0.089844,-0.070312,-0.007812,-0.066406,0.0
492668.0,1.324219,-9.089844,-2.652344,0.152344,0.128906,-0.0625,-0.017578,-0.072266,-0.011719
492688.0,1.246094,-9.167969,-2.730469,0.113281,0.089844,-0.222656,-0.033203,-0.068359,-0.019531
492710.0,1.210938,-9.207031,-2.730469,0.085938,0.046875,-0.246094,-0.033203,-0.087891,-0.017578
492721.0,1.210938,-9.207031,-2.691406,0.085938,0.046875,-0.199219,-0.050781,-0.134766,-0.005859
492750.0,1.246094,-9.285156,-2.347656,0.128906,-0.03125,0.167969,-0.070312,-0.193359,-0.007812
492767.0,1.054688,-9.359375,-2.230469,0.023438,-0.078125,0.292969,-0.046875,-0.142578,-0.007812
492787.0,1.171875,-9.363281,-2.460938,-0.015625,-0.117188,0.183594,-0.058594,-0.109375,-0.007812
492808.0,1.246094,-9.324219,-2.460938,0.109375,-0.160156,0.085938,-0.058594,-0.099609,-0.009766
492860.0,0.902344,-9.246094,-2.730469,-0.191406,-0.007812,-0.152344,-0.041016,-0.068359,-0.009766
492891.0,1.019531,-9.320312,-2.191406,-0.074219,-0.09375,0.402344,-0.013672,-0.103516,-0.007812
492907.0,0.941406,-9.359375,-2.191406,-0.113281,-0.132812,0.4375,-0.009766,-0.052734,-0.017578
492931.0,0.902344,-9.324219,-2.613281,-0.191406,-0.09375,-0.011719,-0.033203,-0.052734,-0.023438
492947.0,0.980469,-9.285156,-2.652344,-0.152344,-0.054688,-0.050781,-0.015625,-0.121094,-0.027344
492967.0,0.941406,-9.242188,-2.421875,-0.113281,-0.054688,0.1875,0.013672,-0.134766,-0.023438
492987.0,0.941406,-9.164062,-2.691406,-0.144531,-0.015625,0.1875,-0.001953,-0.076172,-0.013672
493007.0,1.210938,-9.128906,-2.804688,0.046875,0.097656,-0.1875,-0.015625,-0.083984,-0.019531
493030.0,1.132812,-9.242188,-2.652344,0.046875,-0.023438,-0.035156,-0.017578,-0.099609,-0.025391
493047.0,1.054688,-9.207031,-2.539062,0.007812,0.015625,0.085938,-0.023438,-0.074219,-0.015625
493071.0,1.054688,-9.207031,-2.84375,-0.03125,0.015625,-0.210938,-0.035156,-0.064453,-0.007812
493087.0,1.246094,-9.203125,-2.769531,0.054688,0.050781,-0.171875,-0.03125,-0.082031,-0.013672
493102.0,1.210938,-9.203125,-2.652344,0.09375,-0.03125,0.101562,-0.027344,-0.09375,-0.011719
493141.0,1.171875,-9.246094,-2.652344,0.09375,-0.03125,0.003906,-0.021484,-0.021484,-0.003906
493157.0,1.054688,-9.207031,-2.613281,0.054688,-0.03125,0.042969,-0.015625,-0.007812,-0.005859
493180.0,0.941406,-9.125,-2.730469,-0.136719,0.082031,-0.066406,-0.023438,-0.021484,-0.003906
493197.0,0.902344,-9.203125,-2.652344,-0.175781,0.042969,0.011719,-0.029297,-0.037109,-0.007812
493211.0,0.863281,-9.28125,-2.652344,-0.253906,-0.070312,0.019531,-0.015625,-0.039062,-0.005859
493227.0,0.941406,-9.28125,-2.691406,-0.175781,-0.070312,0.011719,-0.009766,-0.048828,-0.013672
493249.0,0.941406,-9.128906,-2.652344,-0.136719,0.082031,0.011719,-0.007812,-0.068359,-0.019531
493267.0,0.941406,-9.164062,-2.730469,-0.089844,0.082031,-0.019531,-0.017578,-0.099609,-0.035156
493286.0,1.054688,-9.207031,-3.035156,-0.097656,0.0,-0.316406,-0.021484,-0.119141,-0.03125
493307.0,1.09375,-9.167969,-2.730469,-0.023438,0.0,-0.203125,-0.011719,-0.162109,-0.03125
493327.0,0.980469,-9.207031,-2.578125,-0.089844,0.0,0.1875,-0.013672,-0.109375,-0.033203
493350.0,1.09375,-9.167969,-3.074219,0.015625,0.035156,-0.378906,-0.013672,-0.072266,-0.029297
493367.0,1.285156,-9.242188,-2.996094,0.140625,-0.039062,-0.378906,-0.011719,-0.123047,-0.03125
493390.0,1.363281,-9.242188,-2.613281,0.285156,-0.046875,0.089844,0.0,-0.132812,-0.03125
493422.0,1.285156,-9.050781,-2.882812,0.261719,0.082031,-0.300781,-0.029297,-0.025391,-0.021484
493477.0,1.4375,-9.246094,-2.730469,0.316406,-0.0625,0.097656,0.013672,0.044922,0.0
493500.0,1.324219,-9.128906,-2.996094,0.207031,0.089844,-0.246094,-0.003906,0.039062,-0.003906
493517.0,1.210938,-9.125,-2.84375,0.160156,0.128906,-0.210938,-0.005859,0.035156,0.005859
493537.0,0.980469,-9.246094,-2.84375,-0.078125,-0.023438,-0.011719,-0.005859,0.085938,0.009766
493570.0,1.054688,-9.007812,-2.804688,-0.09375,0.207031,-0.054688,-0.023438,0.109375,0.015625
493587.0,1.09375,-9.050781,-2.578125,-0.054688,0.207031,0.144531,0.0,0.089844,0.023438
493601.0,1.09375,-9.125,-2.539062,-0.015625,0.042969,0.074219,0.0,0.105469,0.029297
493617.0,1.285156,-9.128906,-3.074219,0.023438,0.042969,-0.164062,-0.005859,0.111328,0.044922
493639.0,1.476562,-9.164062,-2.613281,0.328125,0.042969,0.144531,-0.019531,0.078125,0.041016
493656.0,1.324219,-9.203125,-2.421875,0.289062,0.015625,0.257812,-0.019531,0.136719,0.037109
493671.0,1.246094,-9.242188,-2.5,0.089844,-0.03125,0.105469,-0.029297,0.183594,0.035156
493686.0,1.132812,-9.242188,-2.960938,0.015625,-0.109375,-0.039062,-0.041016,0.146484,0.03125
493719.0,1.09375,-9.363281,-2.386719,-0.0625,-0.148438,0.386719,-0.046875,0.085938,0.033203
493736.0,1.019531,-9.28125,-2.269531,-0.09375,-0.109375,0.464844,0.003906,0.091797,0.052734
493756.0,0.902344,-9.125,-2.769531,-0.246094,0.082031,0.074219,0.001953,0.082031,0.035156
493780.0,0.824219,-9.207031,-2.769531,-0.316406,0.007812,-0.003906,0.011719,-0.021484,0.011719
493796.0,0.671875,-9.320312,-2.613281,-0.390625,-0.03125,0.113281,0.007812,-0.091797,0.0
493836.0,0.75,-9.050781,-2.882812,-0.460938,0.050781,0.035156,0.019531,-0.134766,0.009766
493851.0,0.824219,-9.011719,-2.996094,-0.136719,0.246094,-0.269531,0.029297,-0.175781,0.005859
493866.0,1.054688,-9.085938,-2.804688,-0.015625,0.207031,-0.117188,0.056641,-0.246094,-0.001953
493888.0,1.132812,-9.242188,-2.652344,0.039062,-0.015625,0.097656,0.066406,-0.220703,0.0
493906.0,1.324219,-9.207031,-2.996094,0.117188,-0.015625,-0.09375,0.056641,-0.048828,0.009766
493926.0,1.476562,-9.164062,-3.1875,0.351562,-0.015625,-0.410156,0.052734,-0.025391,0.013672
493945.0,1.515625,-9.128906,-2.996094,0.4375,0.105469,-0.425781,0.048828,-0.066406,0.009766
493989.0,1.210938,-9.007812,-3.152344,0.140625,0.230469,-0.441406,0.037109,-0.001953,0.033203
494006.0,1.285156,-9.050781,-2.960938,0.183594,0.222656,-0.394531,0.015625,-0.054688,0.035156
494028.0,1.246094,-9.007812,-2.882812,0.199219,0.230469,-0.171875,0.017578,-0.048828,0.035156
494075.0,1.171875,-9.246094,-2.539062,0.207031,0.0,0.179688,0.005859,0.037109,0.058594
494100.0,1.285156,-9.203125,-2.84375,0.261719,0.039062,-0.125,-0.001953,0.074219,0.070312
494115.0,1.324219,-9.207031,-2.578125,0.339844,0.039062,-0.050781,0.021484,0.046875,0.080078
494138.0,1.132812,-9.324219,-2.5,0.125,-0.070312,0.210938,0.023438,0.082031,0.082031
494156.0,1.09375,-9.28125,-2.84375,0.09375,-0.070312,0.050781,0.005859,0.109375,0.09375
494170.0,1.09375,-9.242188,-2.960938,0.148438,0.039062,-0.140625,-0.003906,0.101562,0.099609
494195.0,0.902344,-9.359375,-2.269531,0.003906,-0.070312,0.28125,0.029297,0.0625,0.099609
494216.0,1.019531,-9.242188,-2.578125,-0.050781,-0.03125,0.347656,0.037109,0.119141,0.105469
494239.0,1.09375,-9.167969,-2.921875,0.15625,0.089844,-0.234375,0.023438,0.103516,0.105469
494256.0,1.054688,-9.242188,-2.347656,0.203125,0.054688,-0.042969,0.037109,-0.003906,0.099609
494280.0,0.671875,-9.363281,-2.308594,-0.234375,-0.101562,0.363281,0.046875,0.080078,0.107422
494295.0,0.75,-9.164062,-2.960938,-0.1875,0.0625,-0.019531,0.037109,0.09375,0.111328
494315.0,0.902344,-9.324219,-2.882812,-0.019531,0.023438,-0.410156,0.039062,-0.003906,0.103516
494335.0,0.824219,-9.363281,-2.269531,0.027344,-0.054688,-0.226562,0.058594,-0.025391,0.099609
494349.0,0.671875,-9.324219,-2.230469,-0.171875,0.03125,0.140625,0.054688,0.033203,0.113281
494365.0,0.75,-9.125,-2.84375,-0.085938,0.191406,-0.164062,0.027344,0.039062,0.115234
494388.0,0.710938,-9.285156,-2.691406,-0.101562,0.0,-0.058594,0.035156,0.003906,0.103516
494405.0,0.597656,-9.285156,-2.578125,-0.164062,0.007812,0.085938,0.0625,-0.080078,0.097656
494424.0,0.671875,-9.207031,-2.996094,-0.175781,0.046875,-0.3125,0.041016,-0.074219,0.101562
494445.0,0.671875,-9.242188,-2.804688,-0.078125,0.09375,-0.273438,0.058594,-0.091797,0.09375
494465.0,0.632812,-9.28125,-2.769531,-0.128906,0.054688,-0.167969,0.064453,-0.087891,0.091797
494488.0,0.789062,-9.125,-2.613281,0.09375,0.175781,-0.027344,0.070312,-0.087891,0.099609
494505.0,0.632812,-9.164062,-2.613281,0.023438,0.144531,0.039062,0.021484,-0.113281,0.095703
494528.0,0.40625,-9.242188,-2.578125,-0.242188,0.070312,0.0,-0.003906,-0.136719,0.085938
494559.0,0.25,-9.433594,-2.5,-0.289062,-0.046875,0.070312,0.035156,-0.166016,0.078125
494575.0,0.480469,-9.207031,-2.578125,-0.160156,0.070312,0.070312,0.035156,-0.1875,0.072266
494597.0,0.519531,-9.363281,-2.347656,-0.050781,-0.039062,0.222656,0.035156,-0.236328,0.070312
494637.0,0.671875,-9.246094,-2.578125,0.15625,0.085938,-0.023438,0.042969,-0.185547,0.080078
494668.0,0.632812,-9.242188,-2.308594,0.15625,0.085938,0.246094,0.048828,-0.226562,0.054688
494685.0,0.558594,-9.207031,-2.386719,0.089844,0.085938,0.238281,0.042969,-0.171875,0.054688
494699.0,0.558594,-9.164062,-2.539062,0.066406,0.199219,-0.152344,0.039062,-0.142578,0.050781
494715.0,0.519531,-9.128906,-2.730469,0.074219,0.199219,-0.230469,0.035156,-0.205078,0.050781
494738.0,0.519531,-9.164062,-2.308594,0.105469,0.160156,0.222656,0.021484,-0.257812,0.041016
494755.0,0.441406,-9.207031,-2.039062,0.074219,0.125,0.414062,0.001953,-0.185547,0.023438
494778.0,0.058594,-9.433594,-2.539062,-0.324219,-0.105469,-0.007812,-0.005859,-0.173828,-0.011719
494795.0,0.136719,-9.511719,-2.308594,-0.324219,-0.105469,-0.007812,0.035156,-0.283203,-0.037109
494809.0,0.058594,-9.585938,-2.0,-0.542969,-0.296875,0.605469,0.048828,-0.306641,-0.039062
494824.0,-0.207031,-9.550781,-2.308594,-0.613281,-0.289062,0.445312,0.035156,-0.226562,-0.011719
494848.0,-0.015625,-9.585938,-2.191406,-0.375,-0.25,0.316406,0.054688,-0.205078,-0.003906
494865.0,-0.246094,-9.625,-2.15625,-0.484375,-0.25,0.351562,0.041016,-0.150391,0.005859
494879.0,-0.363281,-9.550781,-2.15625,-0.820312,-0.128906,0.269531,0.025391,-0.09375,0.013672
494894.0,-0.476562,-9.324219,-2.460938,-0.851562,-0.015625,0.152344,0.0,-0.082031,0.013672
494918.0,-0.398438,-9.359375,-2.730469,-0.726562,-0.015625,-0.230469,0.021484,-0.193359,-0.015625
494935.0,-0.476562,-9.324219,-2.652344,-0.796875,-0.050781,-0.160156,0.017578,-0.300781,-0.011719
494957.0,-0.167969,-9.164062,-2.652344,-0.464844,0.175781,-0.152344,-0.009766,-0.332031,-0.003906
494974.0,0.214844,-9.164062,-2.421875,-0.238281,0.175781,-0.113281,-0.011719,-0.328125,-0.050781
494995.0,0.214844,-9.363281,-2.269531,0.007812,0.023438,0.230469,-0.009766,-0.253906,-0.095703
495027.0,-0.09375,-9.363281,-2.347656,-0.382812,-0.023438,0.160156,-0.037109,-0.216797,-0.095703
495059.0,-0.246094,-9.46875,-2.539062,-0.542969,-0.144531,-0.007812,-0.042969,-0.203125,-0.101562
495075.0,-0.015625,-9.511719,-2.308594,-0.4375,-0.144531,0.070312,-0.017578,-0.25,-0.107422
495096.0,0.328125,-9.46875,-2.15625,0.023438,-0.144531,0.382812,-0.011719,-0.251953,-0.099609
495128.0,0.367188,-9.507812,-2.15625,0.046875,-0.183594,0.382812,-0.005859,-0.179688,-0.101562
495144.0,0.214844,-9.550781,-2.230469,0.0,-0.222656,0.421875,0.001953,-0.076172,-0.087891
495168.0,0.136719,-9.285156,-2.308594,-0.207031,0.046875,0.230469,-0.013672,-0.060547,-0.068359
495184.0,-0.132812,-9.390625,-2.230469,-0.320312,0.007812,0.347656,-0.007812,-0.027344,-0.072266
495204.0,-0.09375,-9.359375,-2.769531,-0.558594,-0.039062,-0.074219,-0.017578,-0.035156,-0.070312
495224.0,0.023438,-9.324219,-2.613281,-0.382812,-0.03125,-0.183594,-0.009766,-0.203125,-0.078125
495243.0,0.214844,-9.394531,-2.347656,-0.191406,-0.039062,0.160156,-0.027344,-0.226562,-0.078125
495263.0,0.25,-9.433594,-2.460938,-0.152344,-0.152344,0.238281,-0.037109,-0.183594,-0.083984
495283.0,0.480469,-9.320312,-2.308594,0.039062,0.03125,0.175781,-0.023438,-0.230469,-0.101562
495307.0,0.480469,-9.363281,-2.269531,0.097656,-0.046875,0.300781,-0.009766,-0.238281,-0.109375
495317.0,0.519531,-9.390625,-2.421875,0.128906,-0.082031,0.140625,0.009766,-0.166016,-0.107422
495334.0,0.519531,-9.429688,-2.230469,0.128906,-0.113281,0.132812,0.021484,-0.083984,-0.083984
495355.0,0.519531,-9.585938,-2.308594,0.121094,-0.152344,0.167969,0.041016,-0.003906,-0.0625
495376.0,0.40625,-9.550781,-2.308594,-0.007812,-0.230469,0.230469,0.044922,0.052734,-0.056641
495416.0,-0.363281,-9.511719,-2.921875,-0.824219,-0.183594,-0.398438,0.058594,0.207031,-0.089844
495447.0,-0.132812,-9.207031,-2.421875,-0.617188,0.132812,0.0625,0.119141,-0.03125,-0.109375
495463.0,0.175781,-9.164062,-2.460938,-0.476562,0.207031,0.023438,0.068359,0.115234,-0.125
495487.0,0.328125,-9.359375,-2.308594,-0.21875,-0.015625,0.144531,0.082031,0.224609,-0.148438
495504.0,0.40625,-9.46875,-2.652344,-0.234375,-0.089844,-0.023438,0.101562,0.302734,-0.132812
495526.0,0.632812,-9.546875,-2.230469,0.015625,-0.199219,0.175781,0.107422,0.246094,-0.121094
495557.0,0.519531,-9.085938,-2.308594,-0.144531,0.261719,0.066406,0.044922,0.349609,-0.099609
495573.0,0.519531,-9.125,-2.039062,-0.160156,0.261719,0.25,0.085938,0.433594,-0.138672
495597.0,0.558594,-9.207031,-2.804688,-0.183594,0.15625,-0.46875,0.121094,0.283203,-0.160156
495614.0,0.519531,-9.550781,-2.269531,-0.246094,0.039062,-0.371094,0.162109,0.005859,-0.171875
495628.0,0.519531,-9.664062,-2.078125,-0.277344,-0.375,0.332031,0.167969,-0.050781,-0.181641
495643.0,0.367188,-9.703125,-2.039062,-0.363281,-0.410156,0.386719,0.15625,0.027344,-0.169922
495666.0,0.632812,-9.203125,-2.117188,-0.226562,0.164062,0.109375,0.148438,0.175781,-0.164062
495683.0,1.054688,-9.128906,-1.808594,-0.058594,0.171875,0.324219,0.205078,0.310547,-0.185547
495703.0,1.515625,-9.128906,-2.039062,0.433594,0.292969,0.125,0.267578,0.310547,-0.201172
495723.0,1.746094,-9.164062,-2.039062,0.5625,0.253906,0.09375,0.333984,0.091797,-0.197266
495744.0,1.59375,-9.742188,-1.773438,0.660156,-0.035156,0.230469,0.394531,-0.074219,-0.210938
495766.0,1.667969,-9.894531,-1.617188,0.597656,-0.480469,0.304688,0.435547,-0.044922,-0.207031
495806.0,1.132812,-9.203125,-1.390625,-0.03125,0.234375,0.359375,0.443359,0.183594,-0.228516
495846.0,1.324219,-8.863281,-2.15625,0.042969,0.601562,-0.617188,0.541016,0.388672,-0.195312
495863.0,2.28125,-9.894531,-1.964844,0.402344,0.1875,-0.488281,0.791016,0.224609,-0.210938
495882.0,2.207031,-10.234375,-0.507812,1.128906,-0.984375,0.167969,0.978516,0.105469,-0.257812
495905.0,1.898438,-9.96875,-0.125,0.492188,-0.46875,1.015625,0.820312,0.142578,-0.214844
495923.0,0.824219,-8.941406,-0.8125,-0.464844,0.148438,0.398438,0.462891,0.396484,-0.212891
495946.0,0.863281,-8.859375,-1.925781,-0.652344,0.648438,-1.082031,0.333984,0.572266,-0.244141
495963.0,0.980469,-9.089844,-1.734375,-0.683594,0.570312,-1.003906,0.345703,0.578125,-0.257812
495986.0,1.4375,-9.285156,-1.503906,-0.195312,0.226562,-0.832031,0.476562,0.197266,-0.236328
496017.0,2.207031,-9.589844,-0.46875,0.519531,-0.078125,0.054688,0.552734,-0.144531,-0.214844
496032.0,2.472656,-10.007812,0.105469,0.53125,-0.308594,0.273438,0.544922,-0.291016,-0.167969
496057.0,2.28125,-10.234375,0.066406,0.53125,-0.738281,0.394531,0.541016,0.015625,-0.089844
496073.0,1.707031,-9.855469,-0.085938,0.179688,-0.5,0.261719,0.521484,0.181641,0.035156
496092.0,1.171875,-9.433594,-0.203125,-0.578125,0.035156,0.015625,0.414062,0.251953,0.076172
496114.0,1.476562,-9.773438,-0.203125,-0.488281,-0.042969,-0.191406,0.287109,0.345703,0.103516
496127.0,1.746094,-10.046875,-0.238281,0.140625,-0.609375,-0.222656,0.246094,0.382812,0.125
496143.0,2.207031,-9.96875,-0.355469,0.386719,-0.609375,-0.285156,0.216797,0.351562,0.185547
496157.0,2.320312,-9.773438,-0.394531,0.695312,0.019531,-0.417969,0.224609,0.275391,0.210938
496196.0,2.167969,-9.472656,0.257812,0.574219,0.074219,0.109375,0.207031,0.068359,0.185547
496212.0,2.167969,-9.472656,0.375,0.558594,-0.039062,0.085938,0.236328,0.207031,0.177734
496236.0,2.472656,-9.089844,0.527344,0.949219,0.464844,0.285156,0.234375,0.185547,0.166016
496253.0,2.511719,-8.9375,0.601562,0.996094,0.542969,0.308594,0.115234,0.001953,0.066406
496267.0,2.433594,-9.007812,0.871094,0.621094,-0.070312,1.347656,0.166016,0.039062,0.023438
496283.0,0.710938,-12.078125,2.097656,0.199219,-1.335938,1.601562,0.466797,0.265625,0.058594
496295.0,-0.246094,-11.882812,1.945312,-1.730469,-2.332031,1.539062,0.568359,0.193359,0.226562
496312.0,0.25,-8.246094,0.027344,-2.234375,0.3125,0.027344,0.289062,-0.335938,0.486328
496336.0,3.929688,-8.398438,-0.929688,2.578125,1.171875,-1.421875,-0.003906,-0.140625,0.359375
496353.0,4.582031,-9.285156,1.40625,2.984375,0.710938,-0.6875,0.373047,-0.503906,-0.720703
496374.0,3.8125,-9.394531,1.980469,2.226562,0.136719,1.378906,0.785156,-0.894531,-0.892578
496406.0,1.746094,-9.855469,0.601562,-0.035156,-0.371094,-0.1875,0.755859,-0.875,-0.486328
496423.0,1.054688,-9.8125,-0.621094,-0.511719,-0.339844,-0.875,0.251953,0.125,0.101562
496446.0,0.480469,-9.625,-1.3125,-1.277344,-0.148438,-2.210938,0.03125,0.492188,0.261719
496462.0,0.023438,-9.324219,-0.546875,-1.4375,0.011719,-1.941406,-0.052734,0.482422,0.234375
496485.0,0.328125,-9.089844,1.332031,-1.335938,0.402344,0.417969,-0.041016,0.287109,0.103516
496516.0,0.824219,-9.085938,1.332031,-0.824219,0.402344,0.417969,-0.021484,0.058594,0.001953
496532.0,1.171875,-8.898438,0.871094,-0.667969,0.441406,0.195312,-0.15625,-0.148438,0.03125
496556.0,1.324219,-9.203125,0.027344,-0.316406,0.296875,-0.808594,-0.347656,-0.257812,0.091797
496572.0,1.4375,-9.390625,-0.277344,-0.230469,0.1875,-0.960938,-0.423828,-0.429688,0.117188
496587.0,1.476562,-9.546875,-0.277344,-0.140625,-0.1875,-0.875,-0.427734,-0.548828,0.111328
496601.0,1.667969,-9.777344,0.296875,-0.015625,-0.292969,-0.589844,-0.380859,-0.748047,0.09375
496625.0,1.628906,-9.472656,0.488281,0.027344,0.058594,-0.027344,-0.314453,-0.841797,0.03125
496642.0,1.859375,-8.9375,0.449219,0.296875,0.25,-0.019531,-0.390625,-0.755859,0.107422
496662.0,1.628906,-9.167969,0.183594,0.035156,0.488281,-0.269531,-0.453125,-0.662109,0.099609
496702.0,1.019531,-9.511719,0.183594,-0.46875,0.003906,0.269531,-0.552734,-0.917969,0.175781
496735.0,2.589844,-9.128906,-1.464844,1.113281,0.425781,-1.316406,-0.710938,-0.941406,0.230469
496752.0,3.621094,-9.390625,-1.234375,1.671875,0.359375,-1.269531,-0.654297,-0.945312,0.068359
496781.0,4.082031,-9.746094,0.640625,2.75,-0.1875,0.65625,-0.324219,-0.550781,-0.125
496805.0,3.238281,-9.394531,0.757812,1.761719,0.152344,1.304688,-0.25,-0.121094,-0.125
496822.0,2.703125,-9.285156,0.105469,1.523438,0.21875,1.136719,-0.386719,0.121094,-0.060547
496836.0,2.433594,-9.363281,-0.546875,0.503906,0.019531,-0.441406,-0.488281,0.210938,-0.001953
496852.0,1.285156,-9.929688,-1.351562,0.128906,-0.132812,-0.664062,-0.582031,0.210938,0.080078
496874.0,0.75,-10.316406,-0.777344,-0.734375,-0.792969,0.066406,-0.572266,0.150391,0.091797
496904.0,0.519531,-10.046875,-0.085938,-0.957031,-0.53125,0.867188,-0.347656,-0.037109,0.054688
496921.0,1.019531,-9.703125,-0.355469,-0.71875,-0.339844,0.746094,-0.191406,-0.203125,0.052734
496944.0,1.859375,-9.28125,-0.738281,0.414062,0.226562,0.308594,-0.208984,-0.251953,0.054688
496976.0,2.242188,-9.429688,-0.929688,0.804688,0.066406,0.203125,-0.242188,-0.328125,0.029297
496991.0,2.167969,-9.429688,-1.082031,0.777344,0.066406,0.195312,-0.230469,-0.183594,0.035156
497015.0,1.9375,-9.507812,-1.390625,0.523438,-0.019531,-0.164062,-0.248047,-0.052734,0.001953
497031.0,1.667969,-9.433594,-1.273438,0.40625,0.019531,-0.101562,-0.255859,0.0,-0.001953
497054.0,1.054688,-9.46875,-1.082031,-0.367188,0.011719,0.238281,-0.244141,-0.042969,0.013672
497072.0,0.941406,-9.667969,-1.234375,-0.480469,-0.074219,0.144531,-0.257812,-0.091797,0.044922
497086.0,0.941406,-9.703125,-1.3125,-0.464844,-0.234375,-0.027344,-0.261719,-0.136719,0.054688
497101.0,1.019531,-9.667969,-1.582031,-0.457031,-0.273438,-0.121094,-0.263672,-0.238281,0.089844
497125.0,1.246094,-9.507812,-1.65625,-0.128906,-0.050781,-0.140625,-0.257812,-0.292969,0.095703
497141.0,1.515625,-9.324219,-1.582031,0.003906,0.027344,-0.15625,-0.216797,-0.292969,0.080078
497161.0,1.628906,-9.320312,-1.695312,0.339844,0.210938,-0.070312,-0.234375,-0.267578,0.052734
497202.0,1.4375,-9.363281,-1.695312,0.21875,0.125,0.0,-0.28125,-0.240234,0.054688
497224.0,1.171875,-9.429688,-1.65625,-0.101562,-0.003906,0.125,-0.28125,-0.21875,0.058594
497241.0,1.09375,-9.472656,-1.695312,-0.171875,-0.042969,0.222656,-0.242188,-0.232422,0.066406
497256.0,1.09375,-9.433594,-2.0,-0.15625,-0.011719,-0.140625,-0.240234,-0.244141,0.076172
497271.0,1.171875,-9.394531,-1.847656,-0.0625,0.054688,-0.195312,-0.222656,-0.257812,0.085938
497289.0,1.132812,-9.46875,-1.734375,-0.046875,0.019531,0.058594,-0.214844,-0.257812,0.085938
497304.0,1.09375,-9.46875,-1.808594,-0.085938,-0.066406,0.167969,-0.205078,-0.238281,0.085938
497321.0,1.285156,-9.324219,-2.117188,0.0,0.003906,0.074219,-0.220703,-0.121094,0.080078
497340.0,1.210938,-9.089844,-2.730469,0.089844,0.261719,-0.613281,-0.251953,-0.099609,0.089844
497371.0,0.824219,-9.246094,-2.117188,-0.191406,0.140625,0.0,-0.183594,-0.158203,0.080078
497391.0,0.597656,-9.324219,-2.347656,-0.4375,0.09375,-0.082031,-0.1875,-0.173828,0.089844
497404.0,0.597656,-9.246094,-2.578125,-0.414062,0.164062,-0.542969,-0.205078,-0.175781,0.095703
497420.0,0.710938,-9.207031,-2.386719,-0.398438,0.199219,-0.367188,-0.201172,-0.240234,0.089844
497443.0,0.710938,-9.46875,-2.117188,-0.320312,-0.121094,0.15625,-0.175781,-0.253906,0.091797
497461.0,0.863281,-9.433594,-2.460938,-0.226562,-0.121094,-0.019531,-0.138672,-0.273438,0.09375
497475.0,0.902344,-9.390625,-2.386719,-0.003906,-0.007812,-0.101562,-0.142578,-0.263672,0.09375
497491.0,1.019531,-9.324219,-2.15625,0.050781,-0.050781,0.066406,-0.109375,-0.216797,0.103516
497514.0,0.902344,-9.363281,-2.230469,-0.027344,-0.023438,0.136719,-0.078125,-0.208984,0.105469
497531.0,0.863281,-9.363281,-2.347656,-0.050781,0.015625,0.105469,-0.085938,-0.175781,0.115234
497545.0,0.863281,-9.394531,-2.460938,-0.019531,-0.097656,0.011719,-0.074219,-0.164062,0.115234
497560.0,0.710938,-9.585938,-2.15625,-0.042969,-0.144531,0.136719,-0.035156,-0.185547,0.111328
497584.0,0.597656,-9.429688,-2.308594,-0.230469,-0.105469,0.113281,-0.019531,-0.171875,0.115234
497600.0,0.597656,-9.429688,-2.5,-0.179688,-0.097656,0.0,-0.025391,-0.130859,0.115234
497621.0,0.632812,-9.28125,-2.539062,-0.148438,-0.023438,-0.148438,-0.001953,-0.191406,0.113281
497640.0,0.558594,-9.207031,-2.347656,-0.191406,0.09375,-0.03125,0.013672,-0.207031,0.117188
497660.0,0.597656,-9.128906,-2.613281,-0.121094,0.167969,0.015625,-0.005859,-0.144531,0.109375
497693.0,0.558594,-9.394531,-2.652344,-0.105469,-0.058594,-0.207031,-0.027344,-0.175781,0.097656
497740.0,0.558594,-9.394531,-2.652344,-0.089844,0.054688,-0.199219,0.003906,-0.183594,0.105469
497792.0,0.558594,-9.167969,-2.421875,0.042969,0.175781,0.03125,0.037109,-0.166016,0.123047
497834.0,0.480469,-9.390625,-2.613281,0.011719,-0.042969,-0.167969,0.023438,-0.080078,0.097656
497850.0,0.519531,-9.285156,-2.386719,0.058594,0.03125,-0.140625,0.027344,-0.119141,0.095703
497870.0,0.558594,-9.164062,-2.308594,0.082031,0.148438,0.207031,0.037109,-0.119141,0.076172
497890.0,0.519531,-9.050781,-2.539062,0.136719,0.183594,0.121094,0.019531,-0.115234,0.044922
497910.0,0.441406,-9.125,-2.347656,-0.089844,0.238281,0.0,0.007812,-0.126953,0.025391
497943.0,-0.132812,-9.285156,-2.421875,-0.671875,0.0,0.078125,-0.050781,-0.078125,0.027344
497971.0,-0.246094,-9.625,-2.269531,-0.722656,-0.34375,0.238281,-0.048828,-0.128906,0.044922
498014.0,0.214844,-9.746094,-2.078125,-0.207031,-0.460938,0.421875,0.070312,-0.195312,0.066406
498030.0,0.136719,-9.546875,-2.117188,-0.277344,-0.367188,0.375,0.060547,-0.134766,0.089844
498050.0,0.023438,-9.390625,-2.386719,-0.253906,-0.097656,0.097656,0.046875,-0.087891,0.101562
498083.0,0.023438,-9.246094,-2.691406,-0.3125,0.0625,-0.222656,0.054688,-0.072266,0.095703
498114.0,-0.132812,-9.359375,-2.5,-0.429688,-0.046875,-0.046875,0.037109,-0.099609,0.080078
498129.0,-0.167969,-9.320312,-2.386719,-0.457031,0.03125,-0.054688,0.025391,-0.123047,0.076172
498153.0,-0.167969,-9.285156,-2.421875,-0.417969,0.039062,0.015625,0.021484,-0.166016,0.072266
498170.0,-0.09375,-9.472656,-2.230469,-0.328125,-0.074219,0.089844,0.039062,-0.181641,0.072266
498200.0,0.519531,-9.320312,-2.230469,0.277344,-0.074219,0.074219,0.056641,-0.099609,0.083984
498223.0,0.214844,-9.394531,-2.191406,0.042969,-0.066406,0.214844,0.046875,-0.041016,0.070312
498262.0,-0.167969,-9.390625,-2.386719,-0.316406,-0.066406,0.003906,0.037109,0.070312,0.058594
498294.0,-0.167969,-9.394531,-2.308594,-0.300781,-0.058594,0.066406,0.054688,0.044922,0.056641
498310.0,0.023438,-9.363281,-2.347656,-0.179688,-0.097656,-0.019531,0.050781,0.007812,0.066406
498332.0,-0.167969,-9.394531,-2.0,-0.269531,-0.050781,0.359375,0.027344,0.015625,0.064453
498364.0,-0.207031,-9.46875,-2.078125,-0.292969,-0.121094,0.273438,0.025391,0.021484,0.054688
498379.0,-0.207031,-9.359375,-2.117188,-0.203125,-0.082031,0.265625,0.021484,-0.076172,0.050781
498403.0,-0.363281,-9.433594,-2.039062,-0.417969,-0.082031,0.304688,0.001953,-0.095703,0.041016
498419.0,-0.363281,-9.429688,-2.230469,-0.410156,-0.082031,0.226562,-0.001953,-0.132812,0.027344
498439.0,-0.015625,-9.285156,-2.117188,-0.164062,0.0625,0.105469,-0.005859,-0.199219,0.007812
498450.0,-0.054688,-9.320312,-2.15625,-0.039062,0.0625,0.21875,-0.011719,-0.199219,0.0
498471.0,-0.015625,-9.550781,-2.386719,-0.015625,-0.199219,-0.050781,-0.023438,-0.167969,0.003906
498520.0,0.480469,-9.285156,-2.078125,0.429688,0.070312,0.121094,-0.021484,-0.072266,0.027344
498543.0,0.40625,-9.429688,-2.230469,0.445312,-0.082031,0.121094,-0.017578,-0.009766,-0.003906
498559.0,-0.015625,-9.242188,-2.421875,0.289062,-0.007812,0.160156,-0.013672,-0.007812,-0.029297
498582.0,-0.628906,-9.359375,-2.5,-0.597656,-0.007812,-0.148438,-0.009766,-0.074219,-0.041016
498599.0,-0.78125,-9.359375,-2.347656,-0.636719,-0.082031,0.050781,-0.027344,-0.130859,-0.007812
498619.0,-0.363281,-9.390625,-2.691406,-0.667969,-0.050781,-0.445312,-0.023438,-0.1875,0.005859
498639.0,0.289062,-9.472656,-2.421875,-0.316406,-0.050781,-0.332031,-0.001953,-0.21875,0.003906
498659.0,0.480469,-9.285156,-2.117188,0.582031,-0.015625,0.050781,-0.021484,-0.105469,0.005859
498682.0,-0.476562,-9.511719,-2.191406,-0.40625,-0.167969,0.167969,-0.041016,-0.042969,0.0
498699.0,-0.972656,-9.628906,-2.230469,-0.636719,-0.234375,0.210938,-0.015625,-0.015625,-0.019531
498723.0,-0.972656,-9.585938,-2.308594,-0.902344,-0.234375,0.058594,0.011719,-0.085938,0.007812
498739.0,-0.4375,-9.707031,-2.191406,-0.628906,-0.3125,0.097656,0.056641,-0.140625,0.033203
498759.0,0.289062,-9.320312,-2.230469,0.191406,-0.007812,-0.070312,0.054688,-0.066406,0.0625
498798.0,-0.398438,-9.363281,-2.308594,-0.128906,0.15625,-0.042969,0.009766,0.064453,0.009766
498829.0,-0.132812,-9.433594,-2.578125,-0.246094,-0.113281,-0.394531,0.013672,0.017578,0.005859
498850.0,0.058594,-9.242188,-2.308594,0.140625,-0.007812,-0.085938,0.009766,0.007812,0.011719
498869.0,-0.285156,-9.359375,-2.269531,-0.042969,0.117188,0.097656,-0.017578,0.068359,-0.003906
498894.0,-0.515625,-9.433594,-2.386719,-0.390625,-0.066406,-0.050781,-0.015625,0.064453,-0.009766
498909.0,-0.4375,-9.394531,-2.460938,-0.390625,-0.027344,-0.085938,0.011719,-0.052734,0.011719
498933.0,-0.015625,-9.320312,-2.078125,0.117188,0.046875,0.25,0.021484,-0.064453,0.023438
498949.0,0.097656,-9.320312,-2.078125,0.230469,0.085938,0.289062,-0.005859,0.046875,0.011719
498971.0,0.023438,-9.546875,-1.886719,0.15625,-0.191406,0.441406,-0.001953,0.097656,-0.019531
498989.0,-0.324219,-9.628906,-2.0,-0.035156,-0.226562,0.402344,-0.005859,0.119141,-0.025391
499003.0,-0.4375,-9.625,-2.078125,-0.199219,-0.152344,0.136719,-0.001953,0.105469,-0.013672
499018.0,0.058594,-9.359375,-2.117188,0.0625,-0.113281,0.136719,0.017578,0.058594,0.001953
499042.0,0.097656,-9.164062,-2.230469,0.214844,0.199219,0.097656,0.007812,0.080078,-0.005859
499058.0,-0.4375,-9.363281,-2.347656,-0.097656,0.085938,0.210938,-0.015625,0.130859,-0.025391
499078.0,-0.589844,-9.246094,-2.386719,-0.519531,0.117188,-0.09375,-0.021484,0.080078,-0.015625
499099.0,-0.363281,-9.363281,-2.421875,-0.375,0.078125,-0.058594,-0.027344,0.001953,-0.015625
499118.0,-0.285156,-9.433594,-2.269531,-0.152344,-0.035156,-0.011719,-0.017578,-0.029297,-0.015625
499151.0,-0.246094,-9.164062,-2.117188,-0.144531,0.191406,0.226562,-0.060547,-0.091797,-0.015625
499169.0,-0.554688,-9.390625,-2.117188,-0.214844,0.15625,0.3125,-0.076172,-0.072266,-0.041016
499183.0,-0.746094,-9.511719,-2.386719,-0.636719,-0.191406,-0.179688,-0.080078,-0.087891,-0.044922
