Time,ax,ay,az,lax,lay,laz,gx,gy,gz
13743.0,1.773438,9.320312,-2.300781,0.039062,-0.105469,-0.472656,-0.082031,-0.474609,0.068359
13782.0,1.773438,9.363281,-2.148438,0.046875,-0.066406,-0.3125,-0.037109,-0.460938,0.070312
13799.0,1.847656,9.28125,-2.109375,0.121094,-0.105469,-0.304688,-0.035156,-0.455078,0.082031
13813.0,1.808594,9.28125,-2.070312,0.082031,-0.097656,-0.144531,-0.029297,-0.449219,0.082031
13829.0,1.808594,9.359375,-1.917969,0.082031,-0.058594,-0.097656,-0.025391,-0.4375,0.085938
13851.0,1.886719,9.285156,-1.839844,0.167969,-0.136719,0.035156,-0.025391,-0.441406,0.082031
13882.0,1.847656,9.359375,-1.765625,0.128906,-0.050781,0.125,-0.003906,-0.455078,0.082031
13892.0,1.925781,9.4375,-1.648438,0.207031,0.027344,0.25,-0.033203,-0.417969,0.064453
13922.0,2.117188,9.554688,-1.34375,0.40625,0.140625,0.5625,-0.082031,-0.388672,0.044922
13939.0,2.191406,9.558594,-1.382812,0.445312,0.140625,0.554688,-0.101562,-0.351562,0.033203
13959.0,2.230469,9.476562,-1.535156,0.527344,0.132812,0.402344,-0.103516,-0.304688,0.050781
13979.0,2.191406,9.363281,-1.613281,0.496094,-0.019531,0.316406,-0.101562,-0.251953,0.050781
13998.0,2.15625,9.25,-1.765625,0.496094,-0.136719,0.1875,-0.095703,-0.207031,0.039062
14018.0,2.117188,9.171875,-1.878906,0.421875,-0.21875,0.0625,-0.074219,-0.167969,0.03125
14039.0,2.191406,9.09375,-2.070312,0.460938,-0.296875,-0.171875,-0.035156,-0.117188,0.033203
14061.0,2.191406,9.132812,-2.222656,0.488281,-0.296875,-0.363281,-0.007812,-0.089844,0.035156
14101.0,2.0,9.136719,-2.417969,0.289062,-0.289062,-0.542969,0.078125,0.005859,0.033203
14131.0,1.734375,9.136719,-2.339844,0.0,-0.273438,-0.425781,0.15625,0.046875,0.054688
14172.0,1.695312,9.363281,-2.1875,-0.0625,-0.027344,-0.210938,0.177734,0.064453,0.048828
14189.0,1.617188,9.4375,-2.109375,-0.117188,0.019531,-0.148438,0.177734,0.070312,0.050781
14203.0,1.617188,9.398438,-2.070312,-0.238281,0.066406,-0.039062,0.166016,0.068359,0.044922
14218.0,1.503906,9.398438,-2.03125,-0.285156,0.066406,0.015625,0.154297,0.039062,0.042969
14241.0,1.542969,9.4375,-1.957031,-0.261719,0.082031,0.128906,0.148438,0.019531,0.041016
14258.0,1.695312,9.4375,-1.957031,-0.1875,0.117188,0.144531,0.117188,-0.029297,0.041016
14281.0,1.886719,9.4375,-1.957031,0.066406,0.089844,0.175781,0.095703,-0.025391,0.041016
14298.0,1.847656,9.519531,-1.957031,0.066406,0.132812,0.183594,0.064453,0.017578,0.039062
14318.0,1.773438,9.515625,-1.878906,-0.054688,0.171875,0.277344,0.037109,0.013672,0.033203
14329.0,1.773438,9.515625,-1.839844,-0.054688,0.171875,0.277344,0.027344,0.003906,0.037109
14350.0,1.65625,9.554688,-1.839844,-0.179688,0.21875,0.324219,0.015625,-0.005859,0.041016
14383.0,1.65625,9.519531,-1.765625,-0.195312,0.179688,0.390625,-0.058594,-0.064453,0.042969
14398.0,1.734375,9.480469,-1.839844,-0.117188,0.140625,0.34375,-0.078125,-0.123047,0.042969
14421.0,1.847656,9.363281,-1.957031,-0.011719,0.027344,0.175781,-0.099609,-0.158203,0.046875
14438.0,1.925781,9.28125,-1.996094,-0.011719,-0.058594,0.128906,-0.103516,-0.185547,0.044922
14458.0,2.0,9.253906,-2.070312,0.140625,-0.058594,0.085938,-0.101562,-0.199219,0.050781
14478.0,2.117188,9.25,-2.109375,0.179688,-0.09375,0.03125,-0.097656,-0.1875,0.052734
14508.0,2.078125,9.25,-2.148438,0.210938,-0.058594,-0.070312,-0.087891,-0.160156,0.054688
14531.0,2.0,9.28125,-2.070312,0.125,-0.066406,0.0,-0.085938,-0.142578,0.054688
14548.0,1.925781,9.324219,-1.996094,0.089844,-0.066406,0.03125,-0.082031,-0.150391,0.056641
14568.0,1.886719,9.253906,-2.03125,0.003906,-0.101562,0.058594,-0.074219,-0.173828,0.056641
14588.0,1.925781,9.253906,-2.070312,0.003906,-0.101562,0.015625,-0.064453,-0.199219,0.054688
14607.0,2.039062,9.210938,-2.03125,0.117188,-0.066406,0.007812,-0.056641,-0.21875,0.060547
14632.0,2.078125,9.253906,-2.070312,0.1875,-0.101562,-0.03125,-0.039062,-0.212891,0.056641
14648.0,2.117188,9.25,-2.03125,0.226562,-0.101562,-0.03125,-0.03125,-0.207031,0.054688
14670.0,2.117188,9.359375,-1.917969,0.226562,0.011719,0.128906,-0.027344,-0.193359,0.056641
14701.0,2.117188,9.359375,-1.878906,0.148438,0.058594,0.128906,-0.033203,-0.169922,0.058594
14711.0,2.117188,9.359375,-1.878906,0.148438,0.058594,0.128906,-0.029297,-0.162109,0.054688
14741.0,2.039062,9.402344,-1.804688,0.054688,0.097656,0.1875,-0.042969,-0.158203,0.056641
14758.0,1.964844,9.402344,-1.917969,-0.019531,0.050781,0.113281,-0.046875,-0.15625,0.050781
14778.0,2.039062,9.359375,-1.957031,0.007812,0.050781,0.058594,-0.052734,-0.15625,0.046875
14797.0,2.039062,9.324219,-1.996094,0.046875,0.050781,0.019531,-0.058594,-0.148438,0.041016
14818.0,1.964844,9.285156,-2.070312,0.0,0.003906,-0.0625,-0.0625,-0.134766,0.035156
14851.0,1.964844,9.28125,-2.03125,-0.042969,-0.035156,-0.070312,-0.056641,-0.144531,0.041016
14868.0,2.039062,9.253906,-2.070312,-0.007812,-0.035156,-0.078125,-0.058594,-0.144531,0.035156
14882.0,2.078125,9.28125,-2.070312,0.03125,0.003906,-0.117188,-0.056641,-0.134766,0.035156
14898.0,2.039062,9.320312,-2.03125,0.03125,0.003906,-0.109375,-0.0625,-0.121094,0.035156
14920.0,2.078125,9.25,-2.03125,0.0625,-0.070312,-0.078125,-0.060547,-0.113281,0.035156
14938.0,2.15625,9.285156,-2.03125,0.101562,-0.035156,-0.042969,-0.0625,-0.097656,0.035156
14959.0,2.117188,9.285156,-2.03125,0.09375,-0.035156,-0.042969,-0.060547,-0.087891,0.033203
14991.0,2.039062,9.25,-2.03125,-0.007812,-0.070312,-0.085938,-0.060547,-0.078125,0.029297
15027.0,2.078125,9.28125,-2.070312,0.070312,-0.027344,-0.09375,-0.056641,-0.076172,0.023438
15048.0,2.117188,9.25,-2.03125,0.023438,-0.027344,-0.125,-0.056641,-0.060547,0.025391
15068.0,2.117188,9.25,-2.03125,0.054688,-0.0625,-0.09375,-0.056641,-0.0625,0.019531
15092.0,2.15625,9.285156,-2.03125,0.121094,-0.0625,-0.058594,-0.0625,-0.046875,0.019531
15108.0,2.117188,9.285156,-2.03125,0.121094,-0.019531,-0.09375,-0.0625,-0.035156,0.015625
15131.0,2.117188,9.285156,-2.03125,0.039062,-0.019531,-0.101562,-0.068359,-0.029297,0.017578
15147.0,2.078125,9.320312,-2.03125,0.03125,-0.019531,-0.066406,-0.078125,-0.027344,0.017578
15169.0,2.039062,9.359375,-1.996094,-0.054688,0.050781,-0.074219,-0.074219,-0.027344,0.017578
15200.0,1.925781,9.28125,-1.957031,-0.167969,-0.027344,-0.050781,-0.082031,-0.023438,0.015625
15240.0,2.117188,9.28125,-1.996094,0.03125,-0.027344,-0.097656,-0.070312,-0.060547,0.011719
15257.0,2.117188,9.28125,-1.917969,0.03125,0.011719,-0.066406,-0.064453,-0.029297,0.009766
15277.0,2.117188,9.324219,-1.878906,0.03125,-0.027344,-0.027344,-0.054688,-0.017578,0.009766
15297.0,2.078125,9.324219,-1.839844,0.070312,0.011719,0.042969,-0.058594,-0.003906,0.009766
15318.0,2.039062,9.285156,-1.804688,-0.054688,0.011719,0.070312,-0.048828,0.001953,0.005859
15350.0,2.15625,9.253906,-1.839844,0.0625,-0.0625,0.019531,-0.023438,-0.005859,0.007812
15367.0,2.15625,9.28125,-1.839844,0.023438,-0.0625,0.019531,-0.015625,-0.001953,0.009766
15387.0,2.15625,9.28125,-1.726562,0.023438,0.011719,0.09375,-0.011719,0.013672,0.007812
15411.0,2.117188,9.324219,-1.726562,0.015625,0.011719,0.117188,-0.007812,0.007812,0.009766
15427.0,2.117188,9.28125,-1.6875,0.015625,-0.027344,0.117188,0.001953,0.007812,0.003906
15451.0,2.191406,9.285156,-1.726562,0.089844,-0.019531,0.109375,0.017578,0.013672,0.003906
15467.0,2.191406,9.28125,-1.765625,0.089844,0.019531,0.109375,0.021484,0.025391,0.003906
15487.0,2.191406,9.285156,-1.726562,0.074219,-0.019531,0.109375,0.033203,0.037109,0.001953
15507.0,2.191406,9.320312,-1.726562,0.074219,-0.011719,0.109375,0.037109,0.052734,-0.001953
15521.0,2.15625,9.28125,-1.726562,0.074219,-0.011719,0.109375,0.042969,0.056641,-0.003906
15536.0,2.191406,9.320312,-1.726562,0.074219,0.019531,0.148438,0.042969,0.068359,-0.007812
15560.0,2.191406,9.363281,-1.726562,0.074219,0.066406,0.117188,0.039062,0.080078,-0.007812
15576.0,2.191406,9.285156,-1.6875,0.074219,0.027344,0.125,0.054688,0.095703,-0.015625
15596.0,2.230469,9.320312,-1.726562,0.074219,0.027344,0.125,0.050781,0.115234,-0.019531
15616.0,2.191406,9.402344,-1.726562,0.074219,0.105469,0.171875,0.048828,0.132812,-0.021484
15636.0,2.15625,9.398438,-1.726562,0.03125,0.105469,0.132812,0.042969,0.144531,-0.023438
15656.0,2.117188,9.363281,-1.765625,0.03125,0.066406,0.132812,0.039062,0.138672,-0.027344
15677.0,2.117188,9.398438,-1.726562,-0.007812,0.105469,0.09375,0.027344,0.142578,-0.029297
15699.0,2.117188,9.402344,-1.765625,-0.007812,0.105469,0.09375,0.023438,0.138672,-0.025391
15716.0,2.117188,9.359375,-1.839844,-0.007812,0.066406,0.054688,0.015625,0.134766,-0.027344
15740.0,2.078125,9.359375,-1.917969,-0.046875,0.066406,-0.066406,0.009766,0.130859,-0.023438
15756.0,2.078125,9.359375,-1.878906,-0.085938,0.066406,-0.027344,0.0,0.125,-0.025391
15777.0,2.0,9.359375,-1.917969,-0.085938,0.105469,-0.074219,-0.005859,0.113281,-0.021484
15796.0,2.0,9.359375,-1.957031,-0.125,0.058594,-0.082031,-0.011719,0.099609,-0.019531
15817.0,1.964844,9.363281,-1.957031,-0.175781,0.003906,-0.183594,-0.027344,0.083984,-0.017578
15840.0,1.964844,9.363281,-1.957031,-0.167969,0.003906,-0.191406,-0.035156,0.080078,-0.015625
15856.0,1.964844,9.363281,-1.996094,-0.160156,0.042969,-0.238281,-0.058594,0.068359,-0.017578
15879.0,1.886719,9.320312,-2.070312,-0.230469,-0.042969,-0.320312,-0.0625,0.064453,-0.017578
15896.0,1.847656,9.253906,-2.109375,-0.222656,-0.117188,-0.273438,-0.066406,0.068359,-0.019531
15919.0,1.925781,9.214844,-2.1875,-0.160156,-0.15625,-0.421875,-0.0625,0.064453,-0.023438
15936.0,2.039062,9.214844,-2.1875,-0.121094,-0.15625,-0.382812,-0.044922,0.054688,-0.015625
15957.0,2.039062,9.175781,-2.109375,-0.03125,-0.1875,-0.40625,-0.029297,0.072266,-0.009766
15988.0,2.0,9.28125,-1.878906,-0.054688,-0.058594,-0.074219,-0.017578,0.078125,-0.011719
16019.0,2.039062,9.320312,-1.765625,-0.007812,-0.003906,0.054688,-0.009766,0.064453,-0.003906
16036.0,2.039062,9.324219,-1.726562,0.0,-0.042969,0.101562,0.009766,0.044922,-0.001953
16060.0,2.078125,9.324219,-1.726562,0.039062,0.003906,0.109375,0.025391,0.019531,0.003906
16091.0,2.117188,9.320312,-1.648438,0.078125,0.003906,0.195312,0.027344,0.003906,0.005859
16129.0,2.117188,9.398438,-1.496094,0.070312,0.082031,0.339844,0.017578,0.009766,0.003906
16146.0,2.117188,9.441406,-1.457031,0.0625,0.128906,0.339844,0.007812,0.011719,-0.001953
16166.0,2.15625,9.480469,-1.457031,0.136719,0.15625,0.355469,-0.003906,0.019531,-0.001953
16187.0,2.15625,9.480469,-1.496094,0.128906,0.148438,0.339844,-0.015625,0.035156,-0.001953
16200.0,2.117188,9.441406,-1.496094,0.007812,0.105469,0.277344,-0.025391,0.044922,-0.001953
16216.0,2.0,9.359375,-1.535156,-0.078125,0.027344,0.222656,-0.021484,0.039062,-0.005859
16230.0,2.039062,9.363281,-1.574219,0.0,0.019531,0.121094,-0.023438,0.025391,-0.005859
16246.0,2.078125,9.359375,-1.726562,0.0,0.019531,0.070312,-0.023438,0.029297,-0.005859
16269.0,2.039062,9.28125,-1.726562,-0.039062,-0.074219,-0.03125,-0.013672,0.039062,-0.003906
16286.0,2.078125,9.320312,-1.765625,0.0,-0.035156,-0.078125,-0.009766,0.042969,-0.005859
16308.0,1.964844,9.359375,-1.765625,-0.113281,0.003906,-0.085938,-0.011719,0.044922,-0.001953
16338.0,1.964844,9.363281,-1.6875,-0.105469,0.003906,-0.015625,-0.005859,0.035156,-0.001953
16355.0,2.0,9.359375,-1.6875,-0.105469,0.011719,-0.015625,-0.007812,-0.005859,0.003906
16379.0,2.039062,9.363281,-1.648438,-0.023438,0.003906,0.015625,-0.007812,-0.015625,0.005859
16395.0,2.078125,9.363281,-1.648438,0.015625,0.042969,0.050781,-0.003906,-0.03125,0.009766
16416.0,2.078125,9.402344,-1.648438,0.054688,0.042969,0.015625,-0.009766,-0.03125,0.009766
16449.0,2.0,9.359375,-1.613281,-0.0625,0.003906,0.042969,-0.005859,-0.042969,0.011719
16465.0,2.039062,9.359375,-1.613281,-0.023438,0.003906,0.042969,-0.005859,-0.050781,0.015625
16488.0,2.039062,9.363281,-1.574219,-0.015625,0.003906,0.082031,-0.011719,-0.056641,0.017578
16506.0,2.15625,9.363281,-1.574219,0.015625,0.003906,0.074219,-0.013672,-0.066406,0.017578
16526.0,2.15625,9.441406,-1.535156,0.09375,0.035156,0.074219,-0.017578,-0.054688,0.017578
16558.0,2.039062,9.402344,-1.574219,-0.03125,0.035156,0.058594,-0.023438,-0.039062,0.017578
16575.0,2.0,9.363281,-1.574219,-0.070312,0.035156,0.058594,-0.025391,-0.041016,0.017578
16595.0,2.078125,9.398438,-1.613281,-0.03125,-0.011719,0.011719,-0.017578,-0.056641,0.015625
16615.0,2.15625,9.363281,-1.648438,0.007812,0.027344,0.011719,-0.021484,-0.050781,0.015625
16635.0,2.117188,9.363281,-1.574219,0.046875,-0.011719,-0.003906,-0.025391,-0.03125,0.015625
16659.0,2.117188,9.398438,-1.613281,0.039062,0.027344,-0.011719,-0.023438,-0.033203,0.015625
16675.0,2.15625,9.398438,-1.613281,0.039062,-0.011719,-0.011719,-0.029297,-0.035156,0.015625
16698.0,2.117188,9.402344,-1.648438,0.03125,0.019531,-0.054688,-0.033203,-0.03125,0.015625
16715.0,2.117188,9.363281,-1.648438,0.023438,0.019531,-0.0625,-0.041016,-0.029297,0.017578
16755.0,2.15625,9.359375,-1.726562,0.023438,-0.058594,-0.101562,-0.046875,-0.046875,0.015625
16776.0,2.15625,9.324219,-1.6875,0.054688,-0.058594,-0.148438,-0.044922,-0.041016,0.013672
16808.0,2.15625,9.324219,-1.726562,0.046875,-0.050781,-0.140625,-0.042969,-0.042969,0.009766
16825.0,2.15625,9.28125,-1.726562,0.007812,-0.050781,-0.1875,-0.039062,-0.035156,0.013672
16839.0,2.117188,9.28125,-1.6875,0.039062,-0.089844,-0.101562,-0.041016,-0.039062,0.007812
16855.0,2.191406,9.285156,-1.6875,0.039062,-0.089844,-0.101562,-0.033203,-0.048828,0.011719
16878.0,2.191406,9.320312,-1.6875,0.066406,-0.035156,-0.101562,-0.03125,-0.044922,0.007812
16895.0,2.191406,9.320312,-1.6875,0.105469,-0.035156,-0.09375,-0.035156,-0.037109,0.005859
16909.0,2.191406,9.320312,-1.726562,0.058594,-0.035156,-0.125,-0.035156,-0.029297,0.005859
16925.0,2.230469,9.320312,-1.6875,0.050781,-0.035156,-0.085938,-0.035156,-0.009766,0.0
16948.0,2.191406,9.285156,-1.726562,0.042969,-0.074219,-0.117188,-0.033203,-0.005859,0.0
16965.0,2.15625,9.285156,-1.765625,-0.023438,-0.074219,-0.164062,-0.029297,0.001953,0.003906
16985.0,2.117188,9.28125,-1.726562,-0.078125,-0.066406,-0.15625,-0.019531,-0.001953,0.001953
17007.0,2.15625,9.28125,-1.726562,-0.03125,-0.066406,-0.109375,-0.015625,-0.005859,-0.001953
17026.0,2.191406,9.320312,-1.726562,0.007812,-0.019531,-0.109375,-0.009766,0.003906,-0.003906
17045.0,2.191406,9.363281,-1.6875,0.0,-0.019531,-0.09375,-0.007812,0.007812,-0.001953
17065.0,2.15625,9.320312,-1.648438,0.0,0.027344,-0.046875,-0.007812,0.009766,-0.001953
17088.0,2.078125,9.324219,-1.6875,-0.078125,-0.011719,-0.046875,-0.005859,0.007812,-0.003906
17104.0,2.078125,9.28125,-1.6875,-0.078125,-0.011719,-0.046875,0.001953,0.005859,-0.005859
17128.0,2.15625,9.320312,-1.648438,0.0,-0.011719,0.007812,0.0,0.003906,-0.005859
17145.0,2.15625,9.363281,-1.648438,0.0,0.027344,-0.03125,-0.003906,0.011719,-0.003906
17159.0,2.15625,9.398438,-1.613281,0.0,0.066406,0.042969,-0.009766,0.017578,-0.003906
17174.0,2.15625,9.359375,-1.613281,-0.03125,0.066406,0.082031,-0.011719,0.025391,-0.003906
17198.0,2.117188,9.359375,-1.613281,-0.03125,0.019531,0.035156,-0.009766,0.029297,-0.003906
17214.0,2.078125,9.359375,-1.613281,-0.070312,0.027344,0.074219,-0.005859,0.019531,-0.003906
17235.0,2.078125,9.359375,-1.613281,-0.0625,0.058594,0.027344,-0.011719,0.019531,-0.007812
17268.0,2.117188,9.4375,-1.574219,-0.023438,0.097656,0.050781,-0.017578,0.021484,-0.009766
17307.0,2.078125,9.441406,-1.613281,-0.046875,0.082031,0.003906,-0.021484,0.037109,-0.003906
17337.0,2.0,9.398438,-1.457031,-0.125,0.035156,0.136719,-0.015625,0.029297,-0.005859
17354.0,2.039062,9.398438,-1.535156,-0.085938,-0.003906,0.097656,-0.035156,0.007812,-0.003906
17377.0,2.078125,9.398438,-1.613281,-0.039062,0.035156,-0.042969,-0.037109,-0.003906,-0.003906
17394.0,2.117188,9.359375,-1.535156,-0.03125,0.027344,0.035156,-0.041016,-0.001953,0.0
17415.0,2.078125,9.441406,-1.535156,0.015625,0.066406,-0.019531,-0.050781,-0.005859,0.003906
17447.0,2.039062,9.359375,-1.457031,-0.0625,-0.019531,0.082031,-0.037109,-0.017578,0.005859
17478.0,2.117188,9.320312,-1.574219,0.023438,-0.066406,-0.050781,-0.048828,-0.041016,0.003906
17494.0,2.15625,9.363281,-1.574219,0.03125,-0.027344,-0.097656,-0.037109,-0.044922,0.003906
17517.0,2.15625,9.285156,-1.648438,0.070312,-0.105469,-0.140625,-0.033203,-0.039062,0.005859
17534.0,2.15625,9.285156,-1.648438,0.0625,-0.105469,-0.132812,-0.001953,-0.046875,0.007812
17557.0,2.117188,9.324219,-1.535156,0.023438,-0.050781,-0.011719,0.0,-0.042969,0.009766
17587.0,2.078125,9.359375,-1.535156,-0.015625,-0.011719,-0.003906,0.011719,-0.039062,0.003906
17604.0,2.15625,9.363281,-1.421875,0.023438,-0.050781,0.082031,0.009766,-0.041016,0.001953
17627.0,2.191406,9.320312,-1.457031,0.089844,-0.042969,0.082031,0.001953,-0.033203,0.003906
17644.0,2.230469,9.324219,-1.648438,0.089844,-0.042969,-0.035156,0.011719,-0.039062,0.005859
17658.0,2.191406,9.402344,-1.6875,0.015625,0.035156,-0.074219,0.019531,-0.041016,0.007812
17673.0,2.078125,9.398438,-1.382812,-0.03125,0.042969,0.125,0.03125,-0.005859,0.015625
17698.0,2.078125,9.363281,-1.421875,-0.03125,0.003906,0.132812,0.033203,-0.037109,0.005859
17714.0,2.191406,9.402344,-1.496094,0.007812,0.042969,0.097656,0.019531,-0.033203,0.007812
17744.0,2.230469,9.480469,-1.421875,0.113281,0.050781,0.019531,0.035156,-0.015625,0.013672
17767.0,2.117188,9.4375,-1.304688,-0.015625,0.082031,0.242188,0.007812,0.003906,0.019531
17784.0,2.117188,9.398438,-1.496094,0.023438,0.082031,0.132812,-0.001953,-0.001953,0.011719
17798.0,2.039062,9.398438,-1.382812,-0.09375,0.082031,0.242188,0.007812,0.009766,0.009766
17837.0,2.15625,9.441406,-1.226562,0.023438,0.082031,0.3125,-0.029297,0.003906,0.015625
17854.0,2.078125,9.363281,-1.421875,0.015625,0.042969,0.195312,-0.027344,0.007812,0.007812
17868.0,2.078125,9.324219,-1.34375,-0.0625,0.003906,0.109375,-0.029297,0.003906,0.007812
17908.0,2.230469,9.320312,-1.496094,0.089844,-0.042969,0.027344,-0.03125,-0.019531,-0.001953
17924.0,2.269531,9.320312,-1.648438,0.089844,-0.035156,-0.050781,-0.015625,0.003906,0.001953
17953.0,2.078125,9.28125,-1.535156,-0.03125,-0.035156,-0.105469,-0.001953,0.033203,0.001953
17976.0,2.117188,9.28125,-1.535156,-0.03125,-0.082031,-0.027344,0.003906,0.019531,-0.001953
17986.0,2.191406,9.285156,-1.613281,0.042969,-0.082031,-0.105469,0.001953,0.005859,-0.003906
18003.0,2.117188,9.28125,-1.613281,0.007812,-0.042969,-0.140625,0.019531,0.013672,0.001953
18023.0,2.0,9.363281,-1.574219,-0.070312,-0.042969,-0.179688,0.027344,0.015625,0.0
18048.0,2.117188,9.324219,-1.535156,-0.03125,-0.035156,-0.019531,0.027344,-0.001953,0.005859
18087.0,2.191406,9.402344,-1.535156,0.042969,0.042969,-0.011719,0.019531,0.013672,0.001953
18104.0,2.15625,9.4375,-1.574219,0.058594,0.074219,-0.097656,0.013672,0.021484,0.003906
18126.0,2.039062,9.359375,-1.457031,-0.09375,0.003906,0.019531,0.001953,0.005859,0.007812
18143.0,2.078125,9.324219,-1.496094,-0.101562,0.003906,-0.019531,0.0,-0.025391,0.001953
18163.0,2.078125,9.359375,-1.613281,-0.015625,-0.003906,-0.089844,0.013672,-0.021484,0.003906
18225.0,2.15625,9.359375,-1.6875,0.023438,-0.003906,-0.1875,0.007812,-0.007812,0.003906
18236.0,2.078125,9.359375,-1.613281,-0.054688,-0.003906,-0.105469,0.013672,0.005859,0.001953
18266.0,2.15625,9.363281,-1.574219,0.023438,-0.003906,-0.058594,0.017578,-0.007812,0.005859
18283.0,2.117188,9.363281,-1.574219,0.03125,0.035156,-0.089844,0.013672,-0.001953,0.001953
18297.0,2.117188,9.359375,-1.613281,0.023438,-0.003906,-0.082031,0.015625,-0.003906,0.005859
18313.0,2.117188,9.359375,-1.613281,0.023438,-0.003906,-0.109375,0.009766,0.001953,0.005859
18336.0,2.15625,9.324219,-1.535156,0.015625,-0.035156,0.011719,0.015625,0.007812,0.009766
18353.0,2.191406,9.324219,-1.574219,0.058594,-0.035156,-0.027344,0.011719,-0.005859,0.003906
18367.0,2.191406,9.320312,-1.613281,0.050781,0.003906,-0.085938,0.013672,-0.007812,0.003906
18407.0,2.117188,9.363281,-1.574219,-0.023438,0.003906,-0.003906,0.013672,0.009766,0.009766
18423.0,2.15625,9.324219,-1.535156,-0.023438,-0.035156,0.035156,0.011719,0.009766,0.007812
18445.0,2.15625,9.363281,-1.574219,0.007812,0.011719,0.003906,0.009766,0.001953,0.005859
18463.0,2.15625,9.363281,-1.574219,0.042969,0.011719,-0.035156,0.003906,0.007812,0.005859
18477.0,2.117188,9.359375,-1.613281,0.007812,0.011719,-0.035156,0.009766,0.009766,0.005859
18516.0,2.15625,9.359375,-1.613281,0.007812,0.011719,-0.027344,0.007812,-0.011719,0.003906
18532.0,2.191406,9.359375,-1.574219,0.042969,0.011719,0.011719,0.007812,0.005859,0.001953
18552.0,2.191406,9.320312,-1.535156,0.027344,0.011719,0.042969,-0.003906,-0.003906,-0.001953
18572.0,2.15625,9.359375,-1.535156,-0.007812,0.042969,0.011719,-0.005859,-0.001953,0.001953
18593.0,2.15625,9.324219,-1.496094,-0.007812,-0.035156,0.121094,-0.009766,0.0,-0.003906
18616.0,2.15625,9.402344,-1.574219,-0.007812,0.042969,0.003906,-0.011719,-0.003906,-0.005859
18633.0,2.117188,9.363281,-1.574219,0.0,0.042969,-0.003906,-0.025391,0.017578,-0.001953
18655.0,2.191406,9.363281,-1.457031,0.027344,0.003906,0.097656,-0.025391,0.021484,-0.005859
18695.0,2.191406,9.359375,-1.574219,0.027344,0.003906,-0.027344,-0.017578,0.042969,-0.007812
18712.0,2.117188,9.359375,-1.613281,-0.007812,0.042969,-0.066406,-0.009766,0.052734,0.001953
18733.0,2.039062,9.398438,-1.496094,-0.132812,0.042969,0.011719,-0.007812,0.054688,0.0
18765.0,2.15625,9.324219,-1.613281,-0.007812,-0.042969,-0.074219,-0.019531,0.03125,-0.003906
18782.0,2.191406,9.402344,-1.6875,0.035156,0.003906,-0.15625,-0.005859,0.027344,0.001953
18796.0,2.269531,9.476562,-1.648438,-0.007812,0.148438,-0.027344,-0.009766,0.021484,0.003906
18813.0,2.039062,9.4375,-1.421875,-0.085938,0.109375,0.082031,-0.011719,0.025391,0.001953
18835.0,2.039062,9.324219,-1.457031,-0.109375,-0.042969,0.074219,-0.013672,0.017578,0.007812
18866.0,2.117188,9.324219,-1.613281,0.042969,-0.042969,-0.050781,-0.015625,-0.035156,0.001953
18882.0,2.269531,9.320312,-1.574219,0.089844,-0.050781,-0.011719,-0.011719,-0.021484,0.013672
18906.0,2.269531,9.320312,-1.648438,0.121094,-0.042969,-0.117188,-0.013672,-0.007812,0.007812
18945.0,2.117188,9.359375,-1.613281,-0.039062,0.003906,-0.074219,0.009766,0.005859,0.007812
18962.0,2.117188,9.359375,-1.535156,-0.039062,0.003906,0.003906,0.007812,0.001953,0.005859
18982.0,2.117188,9.363281,-1.574219,-0.039062,0.003906,-0.027344,0.009766,-0.009766,0.005859
19016.0,2.15625,9.398438,-1.496094,-0.007812,0.042969,0.089844,0.003906,-0.011719,0.005859
19032.0,2.191406,9.402344,-1.457031,-0.007812,0.042969,0.089844,-0.005859,-0.013672,0.005859
19053.0,2.191406,9.363281,-1.457031,-0.007812,0.042969,0.050781,-0.013672,-0.009766,0.005859
19085.0,2.230469,9.363281,-1.535156,0.074219,0.003906,0.003906,-0.013672,-0.001953,0.007812
19102.0,2.230469,9.320312,-1.496094,0.035156,0.003906,-0.003906,-0.011719,0.001953,0.007812
19122.0,2.15625,9.285156,-1.574219,-0.007812,-0.074219,-0.042969,-0.005859,-0.005859,0.003906
19142.0,2.15625,9.285156,-1.574219,-0.007812,-0.074219,-0.042969,0.007812,-0.007812,0.005859
19162.0,2.15625,9.324219,-1.613281,-0.015625,-0.035156,-0.082031,0.013672,-0.009766,0.005859
19194.0,2.230469,9.359375,-1.574219,0.058594,0.011719,-0.035156,0.011719,-0.001953,0.001953
19225.0,2.191406,9.402344,-1.457031,0.019531,0.050781,0.089844,0.0,0.005859,0.001953
19242.0,2.15625,9.359375,-1.457031,-0.015625,0.050781,0.089844,0.0,-0.005859,0.003906
19264.0,2.191406,9.363281,-1.496094,0.011719,0.011719,0.042969,-0.001953,-0.013672,0.003906
19282.0,2.191406,9.402344,-1.496094,0.050781,0.011719,0.003906,-0.005859,-0.019531,0.003906
19302.0,2.230469,9.320312,-1.496094,0.089844,0.011719,0.003906,-0.001953,-0.021484,0.001953
19334.0,2.230469,9.359375,-1.574219,0.042969,0.003906,-0.035156,-0.003906,-0.011719,0.003906
19365.0,2.15625,9.324219,-1.535156,-0.03125,-0.035156,-0.003906,-0.001953,-0.003906,0.0
19381.0,2.15625,9.285156,-1.574219,-0.03125,-0.074219,-0.042969,0.005859,-0.011719,-0.001953
19405.0,2.191406,9.363281,-1.535156,0.003906,0.003906,0.003906,0.001953,-0.015625,0.0
19421.0,2.230469,9.363281,-1.535156,0.042969,0.011719,0.003906,0.007812,-0.011719,0.001953
19441.0,2.230469,9.402344,-1.535156,0.082031,0.003906,-0.035156,0.001953,-0.001953,-0.001953
19461.0,2.191406,9.363281,-1.496094,0.042969,0.042969,0.003906,0.003906,0.001953,0.0
19481.0,2.191406,9.363281,-1.496094,-0.039062,0.003906,0.042969,-0.001953,-0.003906,-0.005859
19514.0,2.191406,9.320312,-1.496094,0.003906,-0.035156,0.035156,-0.001953,-0.001953,-0.003906
19531.0,2.191406,9.324219,-1.574219,0.042969,-0.035156,-0.042969,-0.001953,-0.005859,-0.005859
19552.0,2.191406,9.363281,-1.535156,0.003906,0.042969,-0.003906,-0.007812,0.011719,-0.005859
19584.0,2.117188,9.4375,-1.421875,-0.070312,0.082031,0.109375,-0.025391,0.015625,-0.005859
19601.0,2.078125,9.359375,-1.496094,-0.070312,0.042969,0.066406,-0.03125,0.0,-0.005859
19615.0,2.117188,9.359375,-1.496094,-0.03125,0.003906,0.019531,-0.029297,-0.005859,-0.003906
19631.0,2.15625,9.359375,-1.535156,-0.03125,-0.003906,-0.027344,-0.037109,-0.005859,-0.005859
19654.0,2.191406,9.359375,-1.574219,0.011719,-0.003906,-0.066406,-0.037109,-0.001953,-0.001953
19671.0,2.191406,9.285156,-1.535156,0.011719,-0.042969,-0.074219,-0.03125,0.003906,-0.003906
19692.0,2.230469,9.324219,-1.574219,0.011719,-0.042969,-0.082031,-0.015625,0.005859,-0.005859
19725.0,2.191406,9.320312,-1.496094,0.011719,-0.042969,-0.003906,-0.005859,0.025391,-0.009766
19741.0,2.230469,9.285156,-1.496094,0.058594,-0.042969,-0.003906,-0.001953,0.029297,-0.005859
19764.0,2.191406,9.320312,-1.535156,0.011719,-0.042969,-0.035156,0.005859,0.025391,-0.009766
19781.0,2.191406,9.320312,-1.496094,0.042969,-0.042969,-0.042969,0.003906,0.027344,-0.005859
19801.0,2.191406,9.363281,-1.535156,0.003906,0.003906,-0.035156,0.007812,0.033203,-0.005859
19833.0,2.117188,9.359375,-1.535156,-0.070312,0.003906,-0.035156,0.003906,0.035156,-0.007812
19864.0,2.117188,9.359375,-1.496094,-0.0625,0.003906,0.011719,0.003906,0.021484,-0.007812
19881.0,2.15625,9.359375,-1.535156,0.011719,0.003906,-0.027344,0.001953,0.017578,-0.007812
19904.0,2.15625,9.359375,-1.535156,-0.023438,0.003906,-0.027344,0.003906,0.009766,-0.003906
19921.0,2.117188,9.324219,-1.535156,-0.0625,0.003906,-0.027344,0.003906,-0.001953,-0.005859
19935.0,2.117188,9.324219,-1.496094,-0.054688,-0.035156,-0.019531,0.001953,-0.005859,-0.003906
19950.0,2.15625,9.363281,-1.574219,-0.015625,-0.035156,0.019531,0.013672,-0.011719,-0.003906
19975.0,2.15625,9.324219,-1.535156,-0.015625,-0.035156,-0.011719,0.015625,-0.009766,-0.003906
19990.0,2.15625,9.324219,-1.496094,0.019531,-0.035156,0.027344,0.023438,-0.007812,-0.003906
20013.0,2.15625,9.398438,-1.496094,0.0,0.042969,0.035156,0.021484,0.001953,-0.001953
20030.0,2.117188,9.441406,-1.496094,-0.046875,0.042969,0.074219,0.019531,0.007812,-0.005859
20051.0,2.078125,9.363281,-1.421875,-0.078125,0.003906,0.082031,0.019531,0.005859,-0.005859
20083.0,2.15625,9.402344,-1.421875,0.007812,0.050781,0.109375,0.013672,0.001953,-0.001953
20100.0,2.15625,9.402344,-1.421875,0.007812,0.050781,0.109375,0.011719,0.005859,0.001953
20121.0,2.15625,9.402344,-1.421875,-0.03125,0.042969,0.074219,0.011719,0.001953,-0.001953
20153.0,2.191406,9.398438,-1.421875,0.042969,0.035156,0.09375,0.0,-0.003906,0.001953
20184.0,2.15625,9.359375,-1.496094,0.007812,-0.003906,0.011719,-0.005859,0.005859,0.001953
20200.0,2.15625,9.324219,-1.496094,0.015625,-0.003906,0.042969,-0.005859,0.009766,0.003906
20223.0,2.117188,9.324219,-1.496094,-0.03125,-0.042969,-0.003906,-0.003906,0.007812,-0.003906
20240.0,2.117188,9.324219,-1.496094,0.007812,-0.003906,-0.003906,-0.001953,0.003906,-0.001953
20260.0,2.15625,9.359375,-1.496094,0.007812,-0.003906,-0.042969,-0.001953,0.001953,0.0
20280.0,2.15625,9.398438,-1.496094,0.007812,-0.003906,-0.003906,-0.003906,0.007812,-0.001953
20294.0,2.15625,9.398438,-1.457031,0.007812,-0.003906,0.035156,-0.009766,0.009766,0.001953
20310.0,2.117188,9.324219,-1.496094,0.007812,-0.003906,0.027344,-0.005859,0.005859,-0.001953
20333.0,2.117188,9.398438,-1.496094,-0.03125,0.035156,-0.011719,-0.003906,0.0,0.0
20349.0,2.15625,9.359375,-1.496094,0.007812,0.035156,-0.011719,-0.005859,-0.005859,0.0
20371.0,2.191406,9.363281,-1.496094,0.042969,-0.003906,-0.011719,-0.005859,-0.003906,0.001953
20403.0,2.15625,9.359375,-1.496094,0.007812,-0.003906,-0.011719,-0.009766,0.007812,0.003906
20420.0,2.15625,9.359375,-1.496094,-0.03125,-0.042969,-0.011719,-0.003906,0.0,0.001953
20440.0,2.15625,9.359375,-1.535156,0.007812,-0.003906,-0.011719,-0.001953,-0.001953,-0.001953
20460.0,2.15625,9.324219,-1.535156,0.007812,-0.003906,-0.050781,-0.001953,0.001953,0.001953
20473.0,2.15625,9.324219,-1.496094,0.042969,-0.003906,-0.050781,0.001953,0.001953,-0.001953
20489.0,2.15625,9.359375,-1.496094,0.035156,-0.003906,-0.003906,-0.001953,0.007812,0.001953
20509.0,2.117188,9.359375,-1.535156,0.0,-0.003906,-0.011719,0.001953,0.005859,0.001953
20549.0,2.15625,9.398438,-1.535156,0.0,0.035156,-0.011719,0.0,0.003906,0.001953
20560.0,2.15625,9.398438,-1.496094,0.0,0.035156,-0.050781,0.0,0.003906,0.001953
20574.0,2.15625,9.359375,-1.496094,-0.046875,-0.011719,-0.003906,-0.001953,0.003906,0.001953
20589.0,2.117188,9.324219,-1.496094,-0.007812,-0.050781,-0.003906,-0.001953,0.0,0.0
20613.0,2.117188,9.359375,-1.535156,-0.039062,-0.003906,-0.035156,-0.001953,-0.001953,0.0
20629.0,2.117188,9.402344,-1.574219,-0.039062,-0.003906,-0.035156,0.003906,-0.003906,0.003906
20652.0,2.117188,9.398438,-1.496094,-0.039062,0.035156,0.003906,0.001953,-0.001953,0.001953
20669.0,2.117188,9.359375,-1.496094,-0.03125,-0.003906,-0.035156,0.0,-0.007812,0.003906
20689.0,2.117188,9.359375,-1.496094,-0.03125,-0.003906,-0.035156,0.003906,-0.015625,0.005859
20701.0,2.15625,9.359375,-1.496094,-0.03125,-0.003906,0.003906,-0.001953,-0.015625,0.005859
20722.0,2.15625,9.359375,-1.496094,0.007812,-0.003906,0.003906,0.0,-0.011719,0.005859
20739.0,2.15625,9.359375,-1.457031,-0.03125,0.035156,0.003906,0.001953,-0.011719,0.009766
20754.0,2.15625,9.359375,-1.496094,-0.023438,-0.003906,0.011719,0.001953,-0.005859,0.007812
20769.0,2.15625,9.359375,-1.496094,0.015625,0.035156,0.050781,0.0,-0.005859,0.003906
20792.0,2.15625,9.359375,-1.457031,0.007812,-0.003906,0.050781,0.0,-0.005859,0.005859
20809.0,2.15625,9.398438,-1.496094,0.007812,-0.003906,0.011719,0.0,-0.009766,0.007812
20830.0,2.191406,9.320312,-1.496094,0.007812,-0.003906,0.050781,-0.005859,-0.015625,0.007812
20862.0,2.191406,9.363281,-1.496094,0.042969,-0.003906,0.003906,0.001953,-0.005859,0.007812
20879.0,2.191406,9.363281,-1.496094,0.042969,-0.003906,0.003906,0.001953,-0.003906,0.003906
20903.0,2.15625,9.359375,-1.457031,0.0,-0.003906,0.042969,0.003906,0.003906,0.005859
20919.0,2.191406,9.363281,-1.457031,0.0,-0.003906,0.003906,0.003906,0.005859,0.005859
20939.0,2.191406,9.363281,-1.457031,0.027344,0.003906,-0.003906,0.001953,0.001953,0.001953
20972.0,2.15625,9.359375,-1.535156,-0.007812,0.003906,-0.042969,0.0,-0.001953,0.001953
20989.0,2.15625,9.359375,-1.496094,-0.007812,0.003906,0.003906,0.003906,-0.001953,0.001953
21019.0,2.191406,9.363281,-1.496094,-0.007812,0.035156,0.003906,0.0,0.003906,0.001953
21042.0,2.15625,9.398438,-1.457031,-0.015625,0.035156,0.042969,0.003906,0.013672,0.001953
21059.0,2.15625,9.402344,-1.421875,0.019531,0.035156,0.035156,-0.005859,0.017578,0.001953
21079.0,2.15625,9.359375,-1.457031,-0.015625,0.035156,0.070312,-0.005859,0.005859,0.001953
21099.0,2.15625,9.324219,-1.496094,-0.015625,-0.003906,0.035156,-0.001953,-0.007812,0.003906
21152.0,2.15625,9.359375,-1.535156,-0.015625,-0.003906,-0.050781,-0.001953,-0.003906,0.003906
21168.0,2.15625,9.359375,-1.496094,0.011719,-0.003906,-0.003906,0.001953,0.003906,0.003906
21188.0,2.117188,9.359375,-1.496094,-0.015625,0.003906,-0.003906,0.003906,0.001953,0.001953
21208.0,2.15625,9.324219,-1.496094,-0.015625,0.003906,0.035156,0.007812,-0.001953,0.003906
21228.0,2.15625,9.359375,-1.535156,0.019531,0.003906,-0.003906,0.003906,-0.001953,0.001953
21252.0,2.15625,9.359375,-1.496094,-0.023438,0.003906,-0.003906,-0.005859,0.003906,0.001953
21278.0,2.15625,9.398438,-1.496094,-0.023438,0.042969,-0.003906,-0.007812,-0.007812,0.003906
21323.0,2.191406,9.402344,-1.535156,0.019531,0.035156,-0.042969,-0.015625,-0.005859,0.005859
21339.0,2.15625,9.359375,-1.535156,0.019531,-0.003906,-0.042969,-0.013672,-0.005859,0.005859
21362.0,2.15625,9.324219,-1.535156,-0.023438,-0.042969,-0.050781,-0.013672,-0.009766,0.001953
21379.0,2.15625,9.324219,-1.496094,-0.023438,-0.050781,-0.011719,-0.015625,-0.009766,0.003906
21393.0,2.15625,9.359375,-1.496094,0.019531,-0.011719,-0.050781,-0.011719,-0.007812,0.005859
21408.0,2.191406,9.320312,-1.535156,0.058594,-0.011719,-0.042969,-0.007812,-0.007812,0.003906
21432.0,2.191406,9.320312,-1.535156,0.019531,-0.042969,-0.042969,-0.001953,-0.005859,0.005859
21448.0,2.191406,9.324219,-1.574219,0.019531,-0.035156,-0.042969,0.0,-0.007812,0.003906
21463.0,2.191406,9.363281,-1.535156,0.019531,0.003906,-0.042969,0.003906,-0.007812,0.007812
21502.0,2.15625,9.359375,-1.457031,-0.023438,0.003906,0.050781,0.007812,-0.007812,0.003906
21519.0,2.15625,9.359375,-1.457031,-0.023438,0.003906,0.050781,0.001953,-0.013672,0.003906
21541.0,2.230469,9.363281,-1.457031,0.050781,0.003906,0.050781,0.003906,-0.015625,0.005859
21558.0,2.230469,9.402344,-1.457031,0.050781,0.042969,-0.027344,-0.001953,-0.009766,0.005859
21578.0,2.191406,9.359375,-1.421875,0.042969,0.003906,0.050781,-0.005859,-0.007812,0.005859
21611.0,2.191406,9.363281,-1.535156,-0.003906,-0.003906,-0.035156,-0.003906,-0.009766,0.001953
21628.0,2.191406,9.363281,-1.496094,-0.003906,-0.003906,0.003906,-0.003906,-0.005859,0.001953
21649.0,2.191406,9.320312,-1.535156,-0.003906,-0.042969,0.003906,-0.001953,-0.007812,0.0
21682.0,2.230469,9.363281,-1.535156,0.035156,0.003906,-0.035156,0.001953,-0.009766,0.001953
21699.0,2.191406,9.363281,-1.496094,0.035156,-0.003906,0.003906,-0.001953,0.0,0.001953
21713.0,2.191406,9.402344,-1.496094,0.035156,-0.003906,0.003906,-0.003906,0.001953,0.001953
21751.0,2.191406,9.402344,-1.496094,-0.003906,0.035156,-0.003906,-0.011719,0.005859,-0.001953
21768.0,2.15625,9.363281,-1.421875,-0.003906,0.042969,0.035156,-0.025391,0.015625,0.001953
21791.0,2.191406,9.363281,-1.496094,-0.003906,-0.003906,-0.011719,-0.023438,0.001953,0.0
21808.0,2.15625,9.324219,-1.496094,-0.039062,-0.042969,0.027344,-0.021484,-0.001953,-0.003906
21829.0,2.191406,9.320312,-1.535156,-0.039062,-0.042969,-0.058594,-0.015625,-0.003906,0.001953
21861.0,2.230469,9.320312,-1.535156,0.035156,-0.042969,-0.058594,-0.009766,0.001953,0.001953
21878.0,2.230469,9.285156,-1.535156,0.035156,-0.042969,-0.058594,0.001953,0.007812,-0.003906
21892.0,2.269531,9.28125,-1.535156,0.035156,-0.042969,-0.058594,0.007812,0.009766,0.001953
21907.0,2.191406,9.320312,-1.535156,-0.003906,-0.035156,-0.050781,0.015625,0.007812,0.0
21930.0,2.191406,9.363281,-1.457031,-0.011719,0.003906,0.027344,0.015625,0.009766,0.001953
21962.0,2.15625,9.398438,-1.382812,-0.046875,0.050781,0.109375,0.019531,0.013672,0.0
21977.0,2.15625,9.398438,-1.382812,-0.046875,0.050781,0.109375,0.013672,-0.009766,0.001953
22002.0,2.15625,9.398438,-1.382812,-0.046875,0.050781,0.109375,0.011719,-0.011719,0.003906
22018.0,2.191406,9.402344,-1.382812,-0.039062,0.003906,0.109375,0.003906,-0.017578,0.003906
22040.0,2.15625,9.398438,-1.382812,-0.039062,0.042969,0.101562,-0.003906,-0.011719,-0.001953
22058.0,2.191406,9.402344,-1.382812,-0.003906,0.042969,0.101562,-0.003906,-0.011719,-0.001953
22071.0,2.230469,9.402344,-1.382812,0.042969,0.042969,0.054688,-0.009766,-0.009766,0.001953
22088.0,2.191406,9.402344,-1.496094,0.003906,0.035156,0.019531,-0.009766,0.0,0.0
22111.0,2.15625,9.359375,-1.496094,-0.039062,-0.003906,-0.027344,-0.009766,0.001953,-0.003906
22128.0,2.191406,9.359375,-1.421875,-0.039062,-0.003906,0.003906,-0.013672,0.003906,-0.003906
22149.0,2.191406,9.363281,-1.457031,-0.003906,-0.003906,0.003906,-0.015625,-0.003906,-0.005859
22181.0,2.191406,9.363281,-1.457031,0.003906,-0.011719,-0.011719,-0.025391,0.009766,-0.003906
22198.0,2.15625,9.359375,-1.457031,0.003906,-0.011719,-0.050781,-0.023438,0.017578,-0.005859
22212.0,2.191406,9.402344,-1.457031,0.003906,-0.011719,-0.019531,-0.033203,0.015625,-0.005859
22227.0,2.191406,9.320312,-1.496094,0.003906,-0.011719,0.015625,-0.03125,0.007812,-0.007812
22250.0,2.191406,9.320312,-1.535156,0.003906,-0.050781,-0.105469,-0.035156,0.005859,-0.005859
22290.0,2.230469,9.28125,-1.574219,0.042969,-0.089844,-0.136719,-0.003906,0.005859,-0.003906
22321.0,2.230469,9.285156,-1.535156,0.042969,-0.089844,-0.089844,0.011719,0.009766,-0.003906
22337.0,2.230469,9.363281,-1.496094,0.082031,-0.050781,-0.082031,0.017578,0.019531,-0.001953
22360.0,2.191406,9.359375,-1.421875,-0.003906,0.003906,0.046875,0.017578,0.025391,-0.001953
22377.0,2.191406,9.441406,-1.421875,-0.039062,0.042969,0.085938,0.017578,0.021484,-0.003906
22392.0,2.117188,9.398438,-1.382812,-0.078125,0.003906,0.085938,0.011719,0.017578,-0.003906
22406.0,2.078125,9.402344,-1.421875,-0.117188,0.003906,0.046875,0.011719,0.003906,-0.007812
22430.0,2.15625,9.4375,-1.421875,-0.039062,0.082031,0.046875,0.0,-0.005859,-0.005859
22447.0,2.191406,9.398438,-1.421875,-0.03125,0.082031,0.046875,-0.005859,-0.005859,-0.005859
22468.0,2.15625,9.398438,-1.457031,0.003906,0.042969,0.003906,-0.011719,-0.003906,-0.005859
22500.0,2.191406,9.402344,-1.496094,0.011719,0.027344,-0.027344,-0.003906,-0.005859,-0.001953
22517.0,2.15625,9.324219,-1.496094,-0.023438,-0.011719,-0.066406,-0.009766,-0.003906,-0.003906
22540.0,2.191406,9.320312,-1.535156,0.011719,-0.050781,-0.074219,-0.007812,-0.003906,-0.003906
22557.0,2.230469,9.320312,-1.535156,0.019531,-0.050781,-0.105469,0.0,-0.001953,-0.003906
22577.0,2.191406,9.320312,-1.535156,0.019531,-0.050781,-0.074219,0.0,0.005859,-0.003906
22602.0,2.191406,9.363281,-1.496094,0.019531,-0.003906,-0.019531,0.003906,0.005859,-0.001953
22617.0,2.191406,9.359375,-1.421875,-0.015625,0.035156,0.011719,0.0,0.011719,-0.001953
22641.0,2.15625,9.359375,-1.457031,-0.015625,-0.003906,0.011719,0.001953,0.005859,-0.001953
22657.0,2.15625,9.363281,-1.421875,-0.015625,-0.003906,0.011719,-0.001953,0.003906,-0.003906
22681.0,2.191406,9.398438,-1.421875,0.019531,0.035156,0.046875,-0.007812,-0.001953,-0.001953
22709.0,2.15625,9.359375,-1.382812,-0.015625,-0.003906,0.085938,-0.005859,0.005859,-0.003906
22726.0,2.15625,9.402344,-1.421875,0.019531,0.035156,0.046875,-0.011719,0.009766,-0.003906
22750.0,2.15625,9.398438,-1.457031,-0.007812,0.035156,-0.003906,-0.011719,0.007812,-0.003906
22766.0,2.15625,9.359375,-1.457031,-0.015625,0.027344,-0.042969,-0.009766,0.003906,-0.005859
22787.0,2.15625,9.359375,-1.457031,-0.007812,0.019531,0.03125,-0.021484,0.005859,-0.003906
22821.0,2.117188,9.324219,-1.457031,-0.046875,-0.058594,-0.011719,-0.005859,-0.007812,-0.005859
22837.0,2.15625,9.398438,-1.457031,-0.007812,0.019531,-0.011719,-0.007812,-0.007812,-0.005859
22859.0,2.15625,9.359375,-1.457031,0.0,-0.019531,-0.011719,-0.005859,-0.001953,-0.005859
22889.0,2.15625,9.402344,-1.421875,0.0,0.027344,0.015625,0.0,-0.001953,-0.003906
22929.0,2.191406,9.398438,-1.421875,0.035156,0.027344,0.015625,-0.005859,-0.005859,-0.007812
22959.0,2.15625,9.359375,-1.457031,0.0,-0.011719,-0.011719,-0.003906,0.001953,-0.003906
22977.0,2.15625,9.324219,-1.457031,0.0,-0.050781,0.015625,0.0,-0.001953,-0.005859
23000.0,2.15625,9.398438,-1.457031,0.0,0.027344,-0.019531,0.0,0.001953,-0.007812
23017.0,2.191406,9.402344,-1.457031,0.035156,0.027344,-0.019531,-0.009766,0.015625,-0.007812
23031.0,2.15625,9.398438,-1.382812,-0.039062,-0.011719,0.054688,-0.011719,0.017578,-0.005859
23069.0,2.117188,9.363281,-1.421875,-0.03125,-0.011719,0.007812,-0.009766,0.0,-0.001953
23085.0,2.117188,9.402344,-1.421875,-0.03125,0.027344,0.007812,0.0,-0.001953,-0.005859
23109.0,2.230469,9.359375,-1.421875,0.082031,-0.019531,0.0,-0.009766,0.0,-0.001953
23139.0,2.15625,9.363281,-1.421875,0.015625,-0.019531,0.0,-0.003906,0.019531,-0.003906
23156.0,2.078125,9.402344,-1.421875,-0.023438,0.019531,-0.035156,-0.001953,0.007812,-0.007812
23178.0,2.078125,9.359375,-1.382812,-0.0625,-0.019531,0.039062,-0.005859,0.001953,-0.007812
23210.0,2.15625,9.363281,-1.421875,0.023438,-0.019531,-0.007812,-0.003906,-0.009766,-0.005859
23225.0,2.117188,9.359375,-1.382812,0.015625,0.019531,0.03125,-0.005859,-0.007812,0.001953
23249.0,2.117188,9.363281,-1.421875,-0.023438,-0.019531,-0.007812,0.0,-0.007812,-0.001953
23265.0,2.15625,9.363281,-1.421875,-0.023438,-0.019531,0.03125,0.005859,-0.013672,-0.001953
23285.0,2.191406,9.402344,-1.382812,0.058594,-0.019531,0.03125,0.001953,-0.009766,-0.001953
23305.0,2.117188,9.398438,-1.382812,0.058594,0.019531,0.03125,0.001953,-0.001953,0.001953
23325.0,2.15625,9.359375,-1.34375,-0.015625,-0.019531,0.070312,0.001953,-0.003906,-0.001953
23359.0,2.15625,9.402344,-1.421875,0.015625,0.019531,-0.015625,0.007812,-0.005859,-0.001953
23389.0,2.15625,9.363281,-1.421875,0.023438,-0.019531,-0.007812,0.007812,0.001953,0.0
23405.0,2.117188,9.324219,-1.457031,0.023438,-0.019531,-0.007812,0.013672,-0.003906,0.003906
23428.0,2.15625,9.359375,-1.457031,0.015625,-0.019531,-0.042969,0.015625,-0.003906,-0.003906
23458.0,2.15625,9.324219,-1.457031,0.023438,-0.058594,-0.035156,0.015625,-0.001953,0.0
23469.0,2.15625,9.324219,-1.496094,0.015625,-0.058594,-0.066406,0.017578,0.001953,-0.001953
23499.0,2.117188,9.359375,-1.535156,-0.023438,-0.003906,-0.105469,0.029297,0.0,-0.003906
23515.0,2.117188,9.398438,-1.496094,-0.023438,0.027344,-0.058594,0.03125,0.005859,0.001953
23529.0,2.117188,9.359375,-1.496094,-0.023438,-0.003906,-0.003906,0.033203,0.005859,-0.001953
23546.0,2.15625,9.398438,-1.457031,-0.023438,-0.003906,0.03125,0.033203,0.005859,0.003906
23569.0,2.15625,9.402344,-1.421875,0.015625,0.035156,0.039062,0.027344,0.005859,0.0
23585.0,2.117188,9.402344,-1.421875,0.023438,0.035156,0.011719,0.027344,0.007812,0.0
23606.0,2.117188,9.398438,-1.457031,-0.023438,0.066406,0.011719,0.017578,0.009766,0.001953
23639.0,2.117188,9.402344,-1.421875,-0.023438,0.027344,0.054688,0.011719,0.003906,-0.001953
23655.0,2.117188,9.4375,-1.421875,-0.023438,0.066406,0.019531,0.007812,0.001953,-0.001953
23678.0,2.15625,9.363281,-1.421875,0.023438,-0.011719,0.054688,0.001953,0.009766,0.003906
23695.0,2.117188,9.359375,-1.382812,0.015625,-0.019531,0.019531,0.001953,0.007812,-0.003906
23709.0,2.15625,9.359375,-1.457031,0.015625,-0.019531,0.019531,0.003906,0.007812,-0.001953
23725.0,2.117188,9.359375,-1.457031,0.023438,-0.019531,0.046875,0.007812,0.009766,0.003906
23748.0,2.117188,9.363281,-1.421875,-0.023438,-0.019531,0.046875,0.001953,0.011719,0.0
23765.0,2.15625,9.359375,-1.457031,0.023438,-0.058594,0.046875,0.009766,0.007812,-0.001953
23786.0,2.117188,9.398438,-1.457031,-0.023438,0.019531,0.011719,0.011719,0.005859,0.005859
23805.0,2.117188,9.359375,-1.457031,-0.023438,-0.011719,0.039062,0.019531,0.0,0.003906
23825.0,2.15625,9.398438,-1.457031,0.015625,0.027344,0.039062,0.009766,0.001953,0.003906
23848.0,2.117188,9.363281,-1.421875,-0.023438,-0.011719,0.039062,0.011719,0.0,0.005859
23865.0,2.117188,9.359375,-1.496094,-0.023438,-0.011719,0.046875,0.017578,-0.005859,0.001953
23888.0,2.15625,9.441406,-1.457031,0.015625,0.066406,0.003906,0.019531,-0.007812,0.005859
23905.0,2.078125,9.441406,-1.382812,-0.023438,0.066406,0.078125,-0.001953,0.009766,0.003906
23928.0,2.078125,9.398438,-1.382812,-0.054688,0.019531,0.078125,-0.003906,0.009766,0.001953
23944.0,2.15625,9.363281,-1.421875,-0.023438,-0.019531,0.117188,-0.001953,-0.019531,0.005859
23966.0,2.15625,9.359375,-1.496094,0.023438,-0.027344,-0.042969,-0.003906,-0.013672,0.007812
23998.0,2.15625,9.359375,-1.382812,0.015625,-0.019531,0.070312,-0.015625,0.0,0.003906
24015.0,2.191406,9.363281,-1.457031,0.015625,-0.019531,0.023438,-0.009766,0.001953,-0.001953
24034.0,2.191406,9.363281,-1.496094,0.050781,-0.019531,-0.050781,-0.005859,0.003906,0.003906
24055.0,2.117188,9.398438,-1.457031,0.015625,0.019531,-0.050781,-0.009766,0.009766,0.0
24075.0,2.117188,9.363281,-1.421875,-0.03125,-0.019531,0.054688,-0.013672,0.001953,0.003906
24099.0,2.15625,9.359375,-1.457031,0.007812,-0.019531,-0.019531,-0.009766,-0.007812,0.001953
24114.0,2.191406,9.363281,-1.496094,0.007812,-0.019531,-0.058594,-0.003906,-0.017578,0.007812
24138.0,2.15625,9.359375,-1.496094,0.007812,-0.019531,-0.050781,-0.005859,-0.009766,0.003906
24154.0,2.15625,9.359375,-1.457031,0.007812,-0.019531,-0.011719,-0.011719,-0.007812,0.003906
24177.0,2.15625,9.359375,-1.457031,0.007812,-0.019531,-0.011719,-0.003906,-0.003906,0.003906
24195.0,2.117188,9.359375,-1.496094,0.0,-0.019531,-0.089844,-0.001953,-0.007812,0.001953
24215.0,2.078125,9.324219,-1.535156,-0.039062,-0.058594,-0.089844,-0.001953,-0.017578,0.003906
24239.0,2.15625,9.324219,-1.496094,0.007812,-0.050781,-0.035156,0.001953,-0.019531,0.003906
24280.0,2.191406,9.402344,-1.457031,0.042969,0.027344,0.003906,0.003906,-0.009766,0.003906
24317.0,2.15625,9.402344,-1.421875,0.0,0.035156,0.046875,-0.003906,-0.003906,0.003906
24335.0,2.117188,9.402344,-1.421875,0.0,0.027344,0.011719,-0.001953,-0.013672,0.001953
24349.0,2.15625,9.398438,-1.457031,0.0,0.074219,0.085938,-0.011719,-0.009766,0.003906
24387.0,2.117188,9.398438,-1.34375,-0.03125,0.019531,0.109375,-0.029297,-0.003906,0.003906
24418.0,2.15625,9.441406,-1.382812,0.007812,0.019531,0.054688,-0.041016,-0.017578,0.003906
24434.0,2.191406,9.359375,-1.421875,0.0,-0.027344,0.039062,-0.044922,-0.025391,0.003906
24458.0,2.230469,9.363281,-1.496094,0.074219,-0.027344,-0.089844,-0.035156,-0.025391,0.005859
24474.0,2.230469,9.285156,-1.496094,0.074219,-0.105469,-0.089844,-0.021484,-0.019531,0.001953
24497.0,2.191406,9.285156,-1.535156,0.035156,-0.097656,-0.128906,-0.009766,-0.003906,-0.001953
24527.0,2.191406,9.285156,-1.535156,0.027344,-0.097656,-0.121094,-0.001953,0.003906,-0.007812
24544.0,2.15625,9.359375,-1.496094,-0.007812,-0.050781,-0.089844,0.003906,0.003906,-0.001953
24566.0,2.117188,9.359375,-1.496094,-0.046875,-0.011719,-0.066406,0.007812,-0.001953,-0.003906
24605.0,2.15625,9.4375,-1.421875,-0.007812,0.035156,0.015625,0.007812,-0.009766,0.0
24637.0,2.15625,9.398438,-1.457031,-0.007812,0.035156,-0.019531,0.005859,-0.015625,0.001953
24654.0,2.15625,9.4375,-1.421875,0.0,0.027344,-0.011719,-0.003906,-0.003906,0.001953
24674.0,2.191406,9.398438,-1.421875,0.035156,-0.011719,0.023438,-0.003906,0.0,-0.003906
24693.0,2.15625,9.320312,-1.421875,0.035156,0.027344,0.023438,0.0,-0.001953,-0.003906
24714.0,2.15625,9.359375,-1.457031,0.0,-0.011719,-0.050781,0.001953,-0.001953,-0.001953
24776.0,2.15625,9.359375,-1.382812,0.0,-0.003906,0.070312,0.003906,-0.001953,-0.003906
24817.0,2.15625,9.398438,-1.382812,0.0,0.027344,0.070312,0.001953,0.007812,-0.001953
24834.0,2.15625,9.402344,-1.421875,0.0,0.066406,0.03125,0.0,0.007812,-0.005859
24854.0,2.117188,9.398438,-1.382812,0.0,0.027344,0.03125,0.0,0.001953,-0.003906
24886.0,2.15625,9.359375,-1.457031,0.007812,-0.011719,-0.011719,0.003906,-0.005859,-0.003906
24903.0,2.191406,9.402344,-1.496094,0.042969,-0.011719,-0.011719,-0.001953,0.001953,-0.001953
24924.0,2.15625,9.359375,-1.457031,0.0,-0.011719,-0.019531,-0.007812,0.011719,-0.005859
24957.0,2.117188,9.359375,-1.496094,-0.03125,-0.011719,-0.058594,0.0,0.003906,-0.005859
24973.0,2.15625,9.359375,-1.496094,-0.03125,-0.011719,-0.058594,0.0,0.003906,-0.003906
24994.0,2.15625,9.324219,-1.496094,0.042969,-0.011719,-0.050781,-0.001953,0.009766,-0.005859
25015.0,2.191406,9.363281,-1.535156,0.007812,-0.050781,-0.050781,0.0,0.013672,-0.005859
25028.0,2.15625,9.359375,-1.457031,0.042969,-0.011719,-0.011719,0.001953,0.015625,-0.003906
25043.0,2.15625,9.324219,-1.457031,0.007812,-0.011719,-0.011719,0.0,0.015625,-0.003906
25066.0,2.15625,9.359375,-1.457031,0.007812,-0.011719,-0.003906,0.009766,0.019531,-0.005859
25083.0,2.117188,9.363281,-1.421875,-0.03125,0.027344,-0.003906,0.003906,0.021484,-0.003906
25103.0,2.117188,9.359375,-1.496094,-0.03125,-0.011719,-0.003906,0.007812,0.019531,-0.005859
25123.0,2.117188,9.324219,-1.457031,-0.03125,-0.011719,-0.003906,0.015625,0.013672,-0.005859
25144.0,2.15625,9.359375,-1.457031,-0.03125,-0.011719,0.011719,0.013672,0.017578,-0.005859
25166.0,2.117188,9.359375,-1.457031,-0.03125,-0.011719,0.011719,0.015625,0.019531,-0.003906
25183.0,2.117188,9.441406,-1.457031,-0.070312,-0.011719,0.011719,0.017578,0.025391,-0.007812
25206.0,2.117188,9.441406,-1.34375,-0.023438,0.066406,0.125,0.017578,0.029297,-0.005859
25223.0,2.078125,9.441406,-1.382812,-0.023438,0.066406,0.085938,0.003906,0.029297,-0.009766
25244.0,2.078125,9.4375,-1.421875,-0.0625,0.066406,0.085938,-0.001953,0.027344,-0.003906
25276.0,2.078125,9.398438,-1.382812,-0.046875,0.019531,0.070312,0.001953,0.009766,-0.001953
25293.0,2.117188,9.363281,-1.421875,-0.046875,0.019531,0.03125,-0.001953,0.003906,-0.003906
25316.0,2.230469,9.363281,-1.382812,0.105469,-0.019531,0.0625,-0.003906,0.001953,0.0
25345.0,2.15625,9.402344,-1.421875,0.03125,0.019531,0.015625,-0.001953,0.011719,0.0
25378.0,2.078125,9.398438,-1.382812,-0.046875,0.011719,0.046875,-0.001953,0.015625,-0.003906
25417.0,2.117188,9.402344,-1.421875,0.0,0.011719,0.0,0.005859,-0.003906,-0.001953
25433.0,2.15625,9.398438,-1.382812,0.039062,0.011719,0.0,0.005859,-0.001953,-0.003906
25456.0,2.15625,9.398438,-1.382812,0.03125,0.011719,0.039062,-0.001953,-0.001953,-0.001953
25473.0,2.117188,9.402344,-1.421875,0.03125,0.011719,0.0,-0.003906,-0.001953,-0.003906
25487.0,2.15625,9.398438,-1.382812,-0.046875,0.050781,0.0,-0.001953,0.0,-0.001953
25502.0,2.117188,9.398438,-1.382812,-0.039062,0.011719,0.03125,-0.005859,0.001953,-0.003906
25526.0,2.15625,9.363281,-1.421875,0.039062,-0.035156,-0.007812,-0.003906,-0.003906,-0.005859
25543.0,2.15625,9.398438,-1.457031,0.074219,-0.035156,-0.007812,-0.005859,-0.001953,-0.001953
25557.0,2.117188,9.359375,-1.496094,0.0,0.003906,-0.050781,-0.003906,-0.001953,-0.001953
25573.0,2.117188,9.359375,-1.457031,0.0,-0.035156,-0.050781,-0.003906,0.001953,0.0
25596.0,2.15625,9.402344,-1.421875,0.039062,0.003906,-0.015625,-0.005859,0.0,-0.003906
25612.0,2.15625,9.402344,-1.421875,-0.007812,0.011719,-0.042969,-0.009766,0.005859,-0.003906
25635.0,2.15625,9.4375,-1.421875,0.039062,0.042969,-0.015625,-0.019531,0.015625,-0.005859
25652.0,2.117188,9.398438,-1.34375,0.03125,0.042969,0.0625,-0.029297,0.019531,-0.007812
25666.0,2.117188,9.398438,-1.34375,0.0,0.003906,-0.015625,-0.029297,0.013672,-0.005859
25683.0,2.078125,9.359375,-1.457031,0.0,0.003906,-0.023438,-0.029297,-0.003906,-0.005859
25697.0,2.117188,9.398438,-1.457031,0.0,0.003906,-0.058594,-0.029297,-0.001953,-0.003906
25712.0,2.15625,9.398438,-1.382812,0.039062,0.003906,-0.03125,-0.044922,0.007812,-0.005859
25735.0,2.117188,9.441406,-1.457031,0.0,0.042969,-0.066406,-0.046875,0.007812,-0.005859
25752.0,2.078125,9.324219,-1.457031,-0.039062,0.003906,-0.039062,-0.041016,-0.001953,-0.007812
25775.0,2.117188,9.28125,-1.496094,0.0,-0.113281,-0.121094,-0.033203,-0.011719,-0.009766
25792.0,2.15625,9.285156,-1.574219,0.0,-0.113281,-0.199219,-0.017578,-0.021484,0.0
25812.0,2.15625,9.320312,-1.574219,0.074219,-0.082031,-0.230469,-0.003906,-0.013672,-0.009766
25833.0,2.191406,9.320312,-1.535156,0.039062,-0.066406,-0.183594,0.007812,0.003906,-0.003906
25846.0,2.15625,9.359375,-1.457031,0.0,0.011719,-0.023438,0.003906,0.005859,-0.007812
25862.0,2.117188,9.398438,-1.34375,-0.039062,-0.027344,-0.023438,0.007812,0.005859,-0.005859
25877.0,2.078125,9.441406,-1.34375,-0.078125,0.011719,0.070312,0.003906,0.001953,-0.005859
25892.0,2.078125,9.4375,-1.304688,-0.078125,0.050781,0.109375,0.0,-0.005859,-0.005859
25916.0,2.078125,9.4375,-1.304688,-0.03125,0.058594,0.109375,-0.001953,-0.025391,-0.001953
25932.0,2.078125,9.398438,-1.34375,-0.03125,0.019531,0.109375,0.0,-0.029297,-0.003906
25954.0,2.15625,9.398438,-1.34375,0.054688,0.019531,0.0625,0.0,-0.029297,-0.003906
25984.0,2.15625,9.398438,-1.34375,0.054688,0.011719,0.0625,-0.009766,-0.015625,-0.005859
25995.0,2.117188,9.398438,-1.382812,0.007812,0.011719,0.015625,-0.003906,-0.005859,-0.003906
26024.0,2.078125,9.363281,-1.421875,-0.03125,-0.027344,-0.023438,0.0,-0.003906,-0.007812
26055.0,2.078125,9.363281,-1.421875,-0.023438,-0.027344,-0.023438,0.007812,-0.007812,-0.005859
26072.0,2.117188,9.363281,-1.421875,0.015625,-0.027344,-0.023438,0.013672,-0.011719,-0.005859
26095.0,2.15625,9.398438,-1.457031,0.054688,0.019531,-0.058594,0.011719,0.0,-0.005859
26112.0,2.117188,9.402344,-1.421875,0.0625,0.019531,-0.050781,0.013672,0.011719,-0.003906
26127.0,2.117188,9.398438,-1.457031,0.015625,0.019531,-0.015625,0.015625,0.007812,-0.001953
26142.0,2.039062,9.398438,-1.457031,-0.015625,-0.019531,-0.050781,0.017578,0.007812,-0.003906
26164.0,2.039062,9.402344,-1.421875,-0.054688,0.019531,-0.007812,0.019531,0.005859,-0.005859
26181.0,2.039062,9.402344,-1.421875,-0.054688,-0.019531,0.039062,0.021484,-0.005859,-0.001953
26235.0,2.078125,9.398438,-1.496094,-0.015625,0.019531,-0.058594,0.027344,0.0,-0.001953
26252.0,2.078125,9.363281,-1.421875,-0.015625,-0.019531,-0.011719,0.039062,0.011719,-0.001953
26273.0,2.078125,9.363281,-1.421875,-0.015625,-0.019531,0.03125,0.039062,0.007812,-0.001953
26304.0,2.078125,9.398438,-1.457031,-0.015625,0.027344,0.003906,0.044922,0.015625,-0.003906
26321.0,2.078125,9.402344,-1.421875,-0.015625,0.027344,0.046875,0.046875,0.019531,-0.001953
26345.0,2.078125,9.402344,-1.421875,-0.007812,0.027344,0.054688,0.041016,0.015625,-0.001953
26361.0,2.039062,9.398438,-1.382812,-0.085938,0.027344,0.09375,0.037109,0.009766,-0.001953
26381.0,2.039062,9.441406,-1.382812,-0.046875,0.066406,0.101562,0.033203,0.009766,-0.001953
26401.0,2.078125,9.480469,-1.382812,-0.007812,0.101562,0.101562,0.015625,0.011719,-0.003906
26422.0,2.078125,9.476562,-1.265625,0.0,0.09375,0.171875,0.003906,0.013672,-0.001953
26454.0,2.078125,9.4375,-1.304688,0.007812,0.050781,0.15625,-0.009766,0.009766,-0.003906
26471.0,2.078125,9.398438,-1.382812,0.0,0.011719,0.070312,-0.013672,0.001953,0.001953
26491.0,2.078125,9.320312,-1.421875,0.0,-0.027344,0.023438,-0.005859,-0.005859,0.003906
26515.0,2.117188,9.363281,-1.421875,0.039062,-0.027344,0.007812,-0.003906,-0.007812,-0.001953
26531.0,2.191406,9.402344,-1.457031,0.039062,-0.027344,-0.027344,0.001953,0.005859,-0.001953
26555.0,2.117188,9.402344,-1.421875,0.039062,-0.003906,0.0,0.0,0.013672,-0.001953
26571.0,2.039062,9.398438,-1.457031,0.0,0.003906,-0.035156,0.003906,0.013672,0.0
26594.0,2.039062,9.363281,-1.421875,-0.046875,-0.035156,0.0,0.003906,0.009766,-0.001953
26611.0,2.078125,9.398438,-1.457031,-0.007812,-0.035156,-0.035156,0.009766,-0.001953,0.001953
26626.0,2.078125,9.398438,-1.457031,0.0,0.011719,-0.035156,0.011719,-0.003906,0.001953
26665.0,2.117188,9.441406,-1.382812,0.03125,0.042969,0.046875,0.001953,0.007812,0.001953
26681.0,2.117188,9.398438,-1.382812,0.03125,0.042969,0.046875,-0.001953,0.005859,0.003906
26702.0,2.039062,9.359375,-1.496094,-0.007812,-0.035156,-0.027344,0.001953,0.001953,0.003906
26721.0,2.039062,9.359375,-1.535156,-0.046875,-0.035156,-0.066406,0.003906,-0.005859,0.003906
26742.0,2.039062,9.359375,-1.535156,-0.046875,-0.035156,-0.105469,0.003906,-0.005859,0.001953
26774.0,2.078125,9.398438,-1.496094,-0.007812,0.011719,-0.050781,0.007812,-0.007812,0.001953
26791.0,2.078125,9.359375,-1.496094,0.03125,0.011719,-0.042969,0.011719,-0.001953,0.003906
26811.0,2.078125,9.4375,-1.421875,0.03125,0.011719,-0.082031,0.007812,0.007812,0.003906
26843.0,2.039062,9.363281,-1.421875,-0.046875,-0.035156,0.039062,-0.003906,0.005859,0.005859
26861.0,2.078125,9.359375,-1.496094,-0.007812,-0.035156,0.003906,0.001953,-0.011719,0.005859
26882.0,2.078125,9.359375,-1.496094,-0.007812,-0.066406,-0.035156,0.009766,-0.017578,0.007812
26900.0,2.15625,9.398438,-1.535156,0.03125,-0.027344,-0.074219,0.009766,-0.013672,0.005859
26921.0,2.117188,9.359375,-1.535156,0.03125,-0.027344,-0.074219,0.003906,-0.007812,0.003906
26944.0,2.078125,9.398438,-1.457031,-0.015625,0.019531,0.019531,0.001953,-0.007812,0.005859
26960.0,2.078125,9.402344,-1.421875,0.023438,0.058594,0.054688,0.001953,-0.007812,0.005859
26983.0,2.117188,9.402344,-1.421875,0.023438,0.019531,0.054688,-0.001953,-0.009766,0.005859
27000.0,2.078125,9.359375,-1.457031,-0.015625,-0.019531,0.046875,-0.005859,-0.013672,0.003906
27024.0,2.117188,9.363281,-1.421875,-0.015625,0.019531,0.019531,-0.001953,-0.013672,0.003906
27094.0,2.117188,9.398438,-1.457031,0.023438,0.019531,0.019531,0.0,-0.009766,0.003906
27111.0,2.15625,9.359375,-1.457031,0.023438,0.019531,-0.019531,-0.003906,-0.011719,0.003906
27130.0,2.117188,9.359375,-1.457031,0.023438,-0.019531,0.019531,-0.001953,-0.017578,0.005859
27164.0,2.117188,9.359375,-1.457031,0.015625,-0.019531,0.019531,0.001953,-0.019531,0.003906
27180.0,2.15625,9.398438,-1.496094,0.054688,0.011719,0.019531,0.003906,-0.021484,0.003906
27201.0,2.15625,9.398438,-1.457031,0.082031,0.011719,0.019531,0.0,-0.001953,0.003906
27234.0,2.117188,9.359375,-1.496094,0.007812,-0.027344,-0.019531,-0.003906,-0.001953,0.003906
27250.0,2.078125,9.359375,-1.496094,-0.03125,-0.027344,-0.019531,0.003906,-0.007812,0.003906
27265.0,2.078125,9.359375,-1.496094,-0.03125,-0.027344,-0.019531,-0.001953,-0.011719,0.0
27280.0,2.078125,9.359375,-1.496094,-0.070312,-0.027344,-0.019531,0.005859,-0.021484,0.001953
27303.0,2.15625,9.398438,-1.535156,0.046875,0.011719,-0.050781,0.001953,-0.019531,0.001953
27320.0,2.117188,9.359375,-1.535156,0.082031,0.019531,-0.011719,0.007812,-0.013672,0.0
27343.0,2.117188,9.359375,-1.535156,0.007812,-0.019531,-0.042969,0.005859,-0.011719,0.0
27373.0,2.078125,9.359375,-1.535156,-0.03125,-0.019531,-0.042969,0.009766,-0.007812,0.001953
27390.0,2.078125,9.359375,-1.496094,-0.039062,0.019531,-0.035156,0.003906,-0.009766,0.001953
27412.0,2.078125,9.359375,-1.496094,-0.03125,-0.011719,0.003906,0.001953,-0.013672,0.001953
27442.0,2.117188,9.359375,-1.535156,0.007812,-0.011719,-0.035156,0.007812,-0.017578,0.003906
27460.0,2.117188,9.398438,-1.535156,0.054688,-0.011719,-0.027344,0.007812,-0.007812,0.001953
27483.0,2.117188,9.359375,-1.496094,0.015625,-0.011719,0.011719,0.005859,-0.003906,-0.001953
27500.0,2.15625,9.324219,-1.496094,0.015625,-0.011719,0.011719,0.003906,0.0,-0.001953
27521.0,2.117188,9.363281,-1.574219,0.007812,-0.011719,-0.058594,0.003906,-0.001953,0.001953
27554.0,2.117188,9.324219,-1.535156,0.007812,-0.050781,-0.011719,0.013672,-0.001953,0.001953
27592.0,2.15625,9.398438,-1.496094,0.046875,0.027344,0.027344,0.019531,0.005859,0.0
27622.0,2.15625,9.398438,-1.457031,0.046875,0.027344,0.074219,0.013672,0.017578,-0.001953
27639.0,2.117188,9.398438,-1.457031,0.007812,0.027344,0.074219,0.011719,0.017578,-0.001953
27694.0,2.117188,9.398438,-1.496094,0.007812,0.027344,0.027344,0.013672,-0.001953,0.001953
27709.0,2.15625,9.359375,-1.535156,0.046875,-0.011719,0.027344,0.009766,0.003906,-0.001953
27732.0,2.117188,9.398438,-1.496094,0.0,0.035156,0.027344,0.011719,0.019531,-0.001953
27762.0,2.117188,9.398438,-1.457031,0.0,0.035156,0.066406,0.015625,0.021484,-0.003906
27773.0,2.117188,9.363281,-1.421875,0.007812,-0.003906,0.101562,0.013672,0.029297,-0.003906
27802.0,2.117188,9.398438,-1.496094,0.0,0.035156,0.019531,0.013672,0.019531,-0.003906
27819.0,2.15625,9.398438,-1.496094,0.0,0.035156,0.019531,0.013672,0.023438,-0.003906
27840.0,2.078125,9.359375,-1.496094,0.0,-0.003906,0.019531,0.013672,0.023438,-0.005859
27859.0,2.039062,9.359375,-1.496094,-0.039062,-0.042969,0.019531,0.013672,0.021484,-0.009766
27880.0,2.117188,9.363281,-1.574219,0.007812,-0.011719,-0.058594,0.023438,0.015625,-0.003906
27911.0,2.078125,9.359375,-1.613281,-0.039062,-0.003906,-0.089844,0.023438,0.025391,-0.001953
27942.0,2.078125,9.359375,-1.613281,-0.039062,-0.003906,-0.082031,0.015625,0.037109,-0.005859
27974.0,2.039062,9.320312,-1.648438,-0.070312,-0.042969,-0.109375,0.019531,0.025391,0.0
28013.0,2.039062,9.320312,-1.648438,-0.070312,-0.042969,-0.09375,0.025391,0.001953,0.0
28029.0,2.078125,9.363281,-1.648438,-0.023438,-0.003906,-0.085938,0.029297,-0.001953,0.001953
28052.0,2.078125,9.363281,-1.574219,-0.015625,0.003906,0.003906,0.029297,-0.003906,0.003906
28069.0,2.078125,9.398438,-1.535156,-0.023438,0.042969,-0.035156,0.021484,-0.005859,0.001953
28083.0,2.078125,9.441406,-1.535156,-0.015625,0.082031,0.050781,0.017578,-0.001953,0.001953
28098.0,2.039062,9.441406,-1.496094,-0.054688,0.082031,0.089844,0.003906,-0.005859,0.005859
28122.0,2.039062,9.402344,-1.574219,-0.046875,0.035156,0.019531,0.007812,-0.021484,0.001953
28153.0,2.078125,9.363281,-1.574219,-0.007812,-0.003906,0.019531,0.003906,-0.025391,0.003906
28169.0,2.117188,9.398438,-1.613281,0.0,-0.003906,-0.027344,0.007812,-0.027344,0.003906
28192.0,2.15625,9.363281,-1.574219,0.078125,-0.003906,0.019531,-0.001953,-0.017578,0.001953
28209.0,2.15625,9.363281,-1.574219,0.039062,-0.003906,0.019531,0.0,-0.009766,0.001953
28248.0,2.117188,9.398438,-1.535156,0.039062,0.035156,0.019531,-0.011719,0.001953,0.003906
28263.0,2.078125,9.398438,-1.496094,-0.054688,-0.011719,0.089844,-0.013672,0.003906,0.003906
28278.0,2.039062,9.359375,-1.457031,-0.054688,-0.011719,0.128906,-0.013672,-0.015625,0.001953
28301.0,2.117188,9.363281,-1.574219,0.03125,-0.011719,0.003906,-0.011719,-0.029297,0.0
28333.0,2.15625,9.359375,-1.535156,0.0625,-0.019531,0.027344,-0.019531,-0.015625,0.001953
28349.0,2.15625,9.359375,-1.496094,0.070312,-0.019531,0.027344,-0.015625,-0.015625,0.003906
28372.0,2.078125,9.398438,-1.457031,-0.015625,0.027344,0.097656,-0.017578,-0.009766,0.001953
28389.0,2.15625,9.398438,-1.457031,-0.015625,0.027344,0.019531,-0.023438,-0.013672,0.0
28403.0,2.117188,9.398438,-1.457031,0.023438,0.058594,0.082031,-0.029297,-0.013672,-0.001953
28442.0,2.15625,9.398438,-1.457031,0.0625,0.019531,0.066406,-0.044922,-0.015625,-0.003906
28458.0,2.15625,9.359375,-1.457031,0.023438,0.019531,0.050781,-0.039062,-0.017578,-0.007812
28474.0,2.15625,9.398438,-1.457031,0.097656,0.011719,0.042969,-0.044922,-0.017578,-0.001953
28512.0,2.191406,9.363281,-1.535156,0.089844,-0.027344,-0.050781,-0.046875,-0.001953,-0.007812
28528.0,2.191406,9.324219,-1.574219,0.054688,-0.066406,-0.066406,-0.046875,0.007812,-0.007812
28551.0,2.117188,9.25,-1.648438,0.015625,-0.140625,-0.179688,-0.023438,0.005859,-0.013672
28568.0,2.15625,9.285156,-1.648438,0.007812,-0.140625,-0.152344,-0.011719,0.007812,-0.009766
28583.0,2.191406,9.28125,-1.648438,0.039062,-0.058594,-0.257812,-0.003906,0.007812,-0.013672
28599.0,2.191406,9.253906,-1.765625,0.039062,-0.097656,-0.257812,0.011719,0.013672,-0.009766
28621.0,2.117188,9.210938,-1.804688,0.0,-0.164062,-0.304688,0.025391,0.015625,-0.009766
28638.0,2.117188,9.324219,-1.726562,0.0,-0.117188,-0.257812,0.042969,0.021484,-0.013672
28659.0,2.078125,9.359375,-1.496094,-0.039062,0.003906,-0.003906,0.039062,0.021484,-0.011719
28678.0,2.15625,9.402344,-1.574219,0.0,0.003906,0.050781,0.042969,0.013672,-0.009766
28698.0,2.15625,9.359375,-1.726562,0.039062,0.050781,-0.132812,0.041016,0.007812,-0.009766
28721.0,2.117188,9.363281,-1.765625,0.0,0.011719,-0.179688,0.039062,0.009766,-0.009766
28738.0,2.117188,9.398438,-1.613281,-0.046875,0.058594,-0.125,0.03125,0.015625,-0.017578
28761.0,2.039062,9.320312,-1.574219,-0.078125,-0.019531,0.042969,0.023438,0.009766,-0.021484
28778.0,1.925781,9.285156,-1.648438,-0.109375,-0.058594,0.003906,0.03125,-0.023438,-0.027344
28792.0,1.886719,9.175781,-1.6875,-0.253906,-0.140625,-0.0625,0.035156,-0.039062,-0.033203
28808.0,1.886719,9.402344,-1.535156,-0.285156,-0.066406,0.019531,0.046875,-0.078125,-0.044922
28832.0,2.578125,9.398438,-1.839844,0.507812,0.058594,-0.183594,0.056641,-0.117188,-0.039062
28848.0,2.691406,9.132812,-2.070312,0.628906,-0.066406,-0.292969,0.058594,-0.060547,-0.037109
28871.0,2.15625,9.320312,-1.804688,0.101562,-0.027344,-0.117188,0.058594,0.066406,-0.083984
28888.0,2.039062,9.636719,-1.6875,0.03125,0.171875,-0.03125,0.027344,0.078125,-0.091797
28928.0,1.503906,9.132812,-1.457031,-0.296875,0.050781,0.207031,0.007812,0.083984,-0.080078
28947.0,1.734375,9.398438,-1.34375,-0.480469,-0.101562,0.3125,0.0,-0.017578,-0.091797
28971.0,2.347656,9.558594,-1.496094,0.355469,0.195312,0.199219,-0.001953,-0.066406,-0.087891
28988.0,2.5,9.519531,-1.191406,0.429688,0.15625,0.3125,-0.021484,0.021484,-0.064453
29011.0,2.460938,9.636719,-0.808594,0.484375,0.273438,0.878906,-0.044922,0.060547,-0.085938
29050.0,2.078125,9.636719,-0.617188,0.132812,0.257812,1.046875,-0.087891,0.058594,-0.091797
29081.0,2.269531,9.632812,-0.347656,0.347656,0.25,1.277344,-0.138672,0.076172,-0.123047
29097.0,2.382812,9.441406,-0.425781,0.46875,0.125,1.222656,-0.1875,0.136719,-0.15625
29120.0,2.578125,9.558594,-0.347656,0.710938,0.148438,1.191406,-0.189453,0.185547,-0.177734
29151.0,2.578125,9.398438,-0.425781,0.75,-0.027344,1.035156,-0.234375,0.345703,-0.240234
29167.0,2.5,9.398438,-0.539062,0.726562,-0.074219,0.890625,-0.25,0.449219,-0.285156
29188.0,2.613281,9.441406,-0.425781,0.8125,0.023438,0.90625,-0.302734,0.537109,-0.3125
29202.0,2.613281,9.476562,-0.347656,0.855469,-0.027344,0.902344,-0.337891,0.601562,-0.320312
29221.0,2.539062,9.480469,-0.039062,0.851562,-0.023438,1.15625,-0.353516,0.675781,-0.330078
29260.0,2.039062,9.746094,0.992188,0.445312,0.207031,1.953125,-0.449219,1.142578,-0.390625
29277.0,1.734375,9.703125,1.949219,0.394531,0.152344,2.40625,-0.728516,1.787109,-0.515625
29297.0,0.277344,9.285156,2.179688,-0.769531,-0.101562,2.898438,-1.050781,2.451172,-0.761719
29317.0,0.46875,9.671875,2.601562,-1.144531,-0.332031,2.886719,-1.509766,2.664062,-0.935547
29337.0,2.191406,12.195312,0.992188,0.667969,1.554688,1.789062,-1.736328,1.886719,-0.882812
29357.0,2.730469,13.425781,-1.457031,1.300781,2.886719,-0.375,-1.212891,1.306641,-0.642578
29377.0,4.222656,11.046875,-3.488281,2.28125,1.539062,-3.675781,-1.15625,1.632812,-0.183594
29400.0,5.71875,7.828125,-2.644531,4.84375,-1.808594,-3.597656,-0.763672,1.732422,0.554688
29436.0,8.015625,7.332031,-5.941406,6.867188,-2.613281,-6.046875,0.251953,2.378906,1.242188
29456.0,6.867188,6.949219,-7.472656,6.105469,-2.398438,-7.664062,1.21875,3.265625,0.992188
29477.0,2.578125,7.488281,-8.234375,2.578125,-2.542969,-9.285156,1.427734,4.070312,0.548828
29496.0,-0.027344,8.367188,-7.011719,-0.449219,-1.707031,-8.46875,1.625,4.607422,0.136719
29516.0,-3.9375,8.066406,-4.597656,-3.949219,-1.074219,-6.527344,1.544922,4.710938,-0.083984
29529.0,-5.507812,7.988281,-4.140625,-6.867188,-1.632812,-4.671875,1.5,4.496094,-0.140625
29546.0,-8.53125,9.597656,-1.535156,-9.0625,-0.75,-2.882812,1.847656,3.875,-0.1875
29566.0,-8.914062,11.511719,-1.265625,-10.34375,0.726562,-1.523438,1.705078,2.716797,-0.265625
29581.0,-8.226562,13.121094,-1.804688,-9.0625,4.480469,-2.167969,1.576172,1.935547,-0.384766
29598.0,-6.960938,12.65625,-3.757812,-8.132812,3.015625,-3.546875,1.763672,1.126953,-1.216797
29626.0,-0.449219,15.109375,4.363281,-3.59375,6.082031,2.777344,0.255859,0.238281,-0.146484
29650.0,5.753906,11.242188,1.875,4.839844,1.609375,2.625,0.035156,0.09375,0.769531
29667.0,4.988281,7.753906,0.570312,4.585938,-0.652344,2.433594,-0.232422,1.138672,0.005859
29689.0,2.652344,7.988281,-1.074219,1.675781,-1.65625,-0.425781,-0.253906,1.792969,-0.394531
29719.0,3.496094,10.859375,-0.617188,2.566406,1.21875,0.046875,0.361328,1.515625,-0.203125
29749.0,2.347656,10.359375,-1.804688,1.386719,0.726562,-1.132812,0.003906,1.638672,0.076172
29788.0,1.3125,9.4375,-0.308594,0.296875,-0.183594,0.417969,0.484375,2.191406,-0.078125
29799.0,0.929688,9.4375,-0.386719,-0.078125,-0.183594,0.394531,0.755859,1.701172,-0.193359
29816.0,0.699219,9.25,-0.691406,-0.347656,-0.214844,0.226562,0.716797,1.371094,-0.142578
29837.0,0.777344,9.175781,-1.035156,-0.308594,-0.515625,0.144531,0.714844,1.337891,-0.162109
29859.0,1.003906,9.597656,-0.921875,0.003906,0.0,0.195312,0.669922,1.402344,-0.189453
29878.0,0.851562,9.675781,-0.652344,-0.15625,0.085938,0.503906,0.564453,1.447266,-0.191406
29900.0,0.46875,9.4375,-0.84375,-0.53125,-0.136719,0.429688,0.544922,1.222656,-0.199219
29916.0,0.546875,9.175781,-0.921875,-0.5625,-0.359375,0.542969,0.599609,1.0,-0.169922
29939.0,0.585938,9.019531,-0.882812,-0.40625,-0.527344,0.59375,0.740234,0.792969,-0.152344
29956.0,0.851562,9.210938,-0.882812,-0.101562,-0.328125,0.539062,0.757812,0.660156,-0.160156
29976.0,1.082031,8.976562,-1.0,-0.085938,-0.457031,0.855469,0.894531,0.339844,-0.173828
29996.0,1.273438,9.253906,-1.113281,0.113281,-0.519531,0.75,0.849609,0.175781,-0.220703
30016.0,1.390625,9.058594,-1.265625,0.421875,-0.433594,0.976562,0.898438,0.060547,-0.273438
30037.0,1.160156,8.828125,-1.6875,0.308594,-0.578125,0.53125,0.861328,0.025391,-0.314453
30049.0,1.121094,9.058594,-1.996094,0.308594,-0.332031,0.316406,0.857422,0.273438,-0.423828
30079.0,1.964844,9.671875,-1.765625,1.246094,0.320312,0.71875,0.492188,0.925781,-0.666016
30096.0,2.539062,9.746094,-1.191406,1.550781,0.402344,1.027344,0.263672,1.027344,-0.773438
30110.0,2.613281,9.554688,-0.652344,2.257812,0.257812,2.0625,0.203125,1.064453,-0.810547
30149.0,1.925781,9.632812,-0.730469,1.558594,0.296875,1.863281,0.068359,1.021484,-0.951172
30166.0,1.3125,9.554688,-0.386719,1.351562,0.066406,2.246094,-0.105469,0.925781,-1.046875
30189.0,0.890625,10.164062,-0.15625,0.8125,0.816406,2.398438,-0.298828,0.785156,-1.140625
30206.0,0.699219,10.359375,-0.308594,0.675781,0.617188,2.484375,-0.490234,0.765625,-1.15625
30220.0,0.316406,10.359375,-0.425781,0.035156,0.171875,2.695312,-0.539062,0.871094,-1.146484
30234.0,-0.027344,10.628906,-0.539062,0.230469,1.238281,1.828125,-0.722656,1.162109,-1.167969
30250.0,-0.679688,10.894531,-0.15625,-0.601562,1.589844,2.484375,-0.783203,1.40625,-1.246094
30275.0,-1.945312,13.460938,0.570312,-0.875,3.058594,2.03125,-0.982422,1.822266,-1.673828
30296.0,-1.5625,14.453125,0.609375,-0.902344,5.371094,2.433594,-0.876953,1.794922,-1.529297
30316.0,-1.332031,13.617188,0.417969,-0.585938,4.988281,2.429688,-0.808594,1.419922,-1.238281
30346.0,-1.101562,10.824219,-2.453125,0.164062,2.375,0.648438,-1.042969,0.861328,-0.892578
30360.0,-1.0625,10.933594,-2.953125,0.566406,1.824219,-1.683594,-0.976562,0.916016,-0.792969
30375.0,-0.757812,12.121094,-2.609375,0.699219,2.316406,-1.734375,-1.099609,1.322266,-0.435547
30399.0,0.585938,11.777344,-1.191406,2.179688,2.246094,-0.207031,-1.238281,1.5,-0.123047
30415.0,1.195312,11.125,-1.191406,2.660156,1.960938,-0.144531,-1.28125,1.6875,0.335938
30435.0,0.429688,9.859375,-1.996094,2.222656,0.660156,-1.078125,-1.123047,1.769531,0.621094
30455.0,-0.066406,9.476562,-2.300781,1.582031,0.046875,-1.671875,-1.037109,1.886719,0.814453
30485.0,-1.179688,9.703125,-1.0,0.40625,-0.1875,-1.605469,-1.052734,2.177734,0.976562
30508.0,-1.484375,10.203125,-0.039062,-0.71875,0.488281,-0.023438,-1.267578,2.144531,1.169922
30525.0,-1.445312,10.207031,-0.117188,-0.730469,0.625,-0.226562,-1.384766,1.759766,1.332031
30540.0,-1.40625,9.898438,-0.078125,-0.742188,-0.148438,-0.621094,-1.453125,1.537109,1.332031
30568.0,-0.21875,9.210938,-0.960938,-0.179688,-0.507812,-1.851562,-2.113281,1.59375,1.304688
30609.0,0.203125,8.25,-1.496094,-0.171875,-1.363281,-3.160156,-1.779297,1.539062,1.21875
30625.0,0.046875,8.25,-1.765625,-0.460938,-1.523438,-3.226562,-1.621094,1.519531,1.064453
30647.0,-0.871094,8.25,-1.535156,-1.535156,-1.222656,-3.863281,-1.523438,1.580078,0.894531
30678.0,-1.789062,7.945312,-0.921875,-2.5625,-1.40625,-3.65625,-1.333984,1.412109,0.744141
30695.0,-2.402344,7.679688,-0.578125,-2.894531,-1.441406,-3.589844,-1.015625,0.894531,0.554688
30718.0,-3.167969,6.875,0.304688,-4.050781,-2.34375,-2.828125,-0.777344,0.308594,0.470703
30735.0,-3.398438,6.296875,1.757812,-4.160156,-2.621094,-2.277344,-0.523438,-0.634766,0.425781
30749.0,-3.363281,6.101562,2.257812,-4.355469,-3.078125,-0.328125,-0.408203,-1.054688,0.425781
30765.0,-2.902344,6.417969,4.132812,-4.242188,-2.949219,0.308594,-0.132812,-1.394531,0.488281
30789.0,-1.675781,7.40625,4.863281,-3.035156,-1.699219,1.621094,0.304688,-1.28125,0.490234
30805.0,-0.679688,8.253906,5.511719,-2.625,-1.277344,2.179688,0.404297,-0.962891,0.574219
30845.0,-0.949219,11.007812,4.976562,-2.636719,1.234375,2.488281,-0.203125,-0.599609,0.113281
30859.0,-1.484375,11.585938,3.789062,-2.835938,2.898438,-0.734375,-0.076172,-0.505859,-0.138672
30875.0,0.316406,13.921875,-3.949219,-1.75,3.457031,-3.738281,1.421875,-0.568359,-0.423828
30896.0,-0.027344,18.78125,-2.109375,-1.683594,9.566406,-4.757812,1.777344,-0.900391,-0.681641
30928.0,-2.863281,10.167969,-4.371094,-4.433594,0.886719,-6.878906,0.474609,0.496094,-0.056641
30944.0,-4.816406,5.609375,-1.804688,-6.21875,-2.292969,-5.820312,-0.083984,-0.710938,0.638672
30968.0,1.582031,4.992188,-0.960938,-0.230469,-4.253906,-3.40625,-0.085938,-2.140625,0.4375
30985.0,4.070312,7.5625,-0.730469,0.722656,-3.019531,-3.296875,0.998047,-3.425781,0.033203
30999.0,5.335938,9.402344,-1.113281,4.300781,2.601562,-4.601562,1.445312,-3.476562,-0.232422
31044.0,3.152344,10.746094,-1.191406,0.019531,1.660156,-2.5,-0.425781,-1.074219,0.179688
31066.0,2.882812,8.0625,-0.15625,0.941406,1.398438,-2.761719,0.242188,-1.560547,-0.076172
31085.0,2.421875,8.714844,-1.074219,0.433594,-1.097656,-2.152344,0.589844,-2.027344,-0.339844
31108.0,2.117188,9.898438,-1.113281,-0.101562,0.5,-2.253906,0.554688,-2.144531,-0.394531
31125.0,2.269531,10.125,-0.769531,-0.046875,0.601562,-1.921875,0.443359,-2.273438,-0.382812
31141.0,1.925781,9.941406,-0.578125,0.089844,0.699219,-1.707031,0.390625,-2.423828,-0.359375
31164.0,1.351562,9.210938,-0.539062,-0.628906,-0.144531,-1.273438,0.304688,-2.791016,-0.324219
31179.0,1.195312,9.136719,-0.386719,-0.890625,-0.234375,-0.785156,0.267578,-2.898438,-0.333984
31194.0,1.425781,9.441406,-0.078125,-0.828125,-0.175781,-0.546875,0.121094,-3.162109,-0.347656
31206.0,1.886719,9.4375,-0.117188,-0.113281,-0.074219,-0.34375,0.072266,-3.269531,-0.339844
31224.0,3.226562,9.28125,-0.15625,0.953125,-0.199219,-0.226562,-0.001953,-3.185547,-0.335938
31247.0,3.496094,9.015625,-0.117188,1.636719,-0.527344,-0.085938,-0.0625,-3.042969,-0.349609
31264.0,3.378906,9.097656,0.113281,1.644531,-0.496094,-0.007812,-0.316406,-2.490234,-0.492188
31304.0,2.730469,9.9375,0.839844,1.265625,0.183594,0.804688,-0.660156,-1.931641,-0.632812
31334.0,2.0,9.675781,0.953125,0.847656,0.304688,0.847656,-0.830078,-1.769531,-0.695312
31357.0,1.542969,9.519531,0.726562,0.371094,-0.140625,0.523438,-0.964844,-1.746094,-0.705078
31374.0,1.65625,9.515625,0.378906,0.441406,-0.140625,0.289062,-1.099609,-2.003906,-0.787109
31397.0,2.730469,9.398438,-1.074219,1.847656,-0.269531,-1.613281,-1.126953,-2.136719,-0.837891
31416.0,3.152344,9.480469,-1.726562,2.347656,-0.203125,-2.351562,-1.0,-2.544922,-0.904297
31434.0,4.644531,9.554688,-2.683594,3.71875,-0.195312,-3.417969,-0.822266,-2.519531,-0.955078
31454.0,4.375,9.9375,-2.722656,4.058594,-0.117188,-3.527344,-0.720703,-2.085938,-0.925781
31474.0,2.769531,10.085938,-2.378906,3.121094,0.34375,-3.507812,-0.59375,-1.720703,-0.882812
31497.0,0.277344,9.980469,-1.765625,0.105469,0.320312,-2.921875,-0.548828,-1.638672,-0.888672
31507.0,-0.296875,9.980469,-1.496094,-0.398438,0.320312,-2.675781,-0.318359,-1.560547,-0.962891
31527.0,-1.5625,10.089844,-0.769531,-1.5,0.433594,-1.980469,-0.0625,-1.591797,-1.054688
31554.0,-3.4375,11.585938,1.605469,-2.558594,1.507812,-0.53125,-0.083984,-1.621094,-0.945312
31574.0,-4.511719,12.738281,5.167969,-3.683594,2.632812,2.425781,-0.357422,-1.804688,-0.847656
31593.0,-4.585938,12.195312,7.695312,-4.171875,2.640625,5.226562,-0.462891,-1.958984,-0.585938
31614.0,-4.203125,10.820312,5.285156,-3.839844,1.777344,5.269531,-0.755859,-2.380859,-0.308594
31626.0,-4.203125,9.941406,3.941406,-3.648438,0.34375,2.339844,-0.796875,-2.613281,-0.179688
31647.0,-2.402344,7.488281,1.03125,-1.925781,-2.089844,-0.726562,-0.6875,-2.875,-0.068359
31677.0,0.507812,6.527344,-1.0,0.8125,-3.035156,-2.867188,0.037109,-3.171875,0.001953
31693.0,0.851562,6.757812,-0.5,0.949219,-2.964844,-2.628906,0.414062,-2.232422,0.003906
31705.0,0.96875,6.683594,-0.460938,1.140625,-2.902344,-2.25,0.611328,-1.748047,0.029297
31746.0,0.660156,6.878906,-1.648438,0.777344,-2.765625,-3.070312,1.115234,-0.886719,-0.080078
31777.0,-0.601562,6.757812,-1.839844,-0.429688,-2.921875,-2.949219,1.021484,-0.689453,-0.253906
31794.0,-0.949219,7.445312,-1.304688,-0.570312,-2.621094,-2.640625,1.4375,-0.646484,-0.234375
31816.0,-1.140625,9.515625,-0.539062,-0.890625,-0.195312,-1.09375,1.611328,-0.548828,-0.208984
31833.0,-0.984375,10.894531,-0.5,-0.835938,0.488281,-0.808594,1.697266,-0.753906,-0.121094
31846.0,-0.984375,11.472656,-0.691406,-0.6875,1.75,-0.753906,1.607422,-0.910156,-0.064453
31873.0,-0.949219,10.933594,-0.882812,-0.46875,1.949219,-0.855469,1.291016,-1.464844,0.287109
