Time,ax,ay,az,lax,lay,laz,gx,gy,gz
477269.0,-6.347656,-4.679688,-3.980469,3.933594,-0.371094,-1.148438,-0.773438,0.15625,0.359375
477289.0,-10.59375,-6.210938,-4.171875,2.25,-1.375,-1.261719,-0.484375,0.144531,0.425781
477309.0,-22.324219,-8.320312,-6.96875,-9.089844,-4.480469,-3.015625,-0.207031,0.052734,0.410156
477368.0,-28.300781,-8.703125,-12.984375,-18.238281,-3.96875,-9.195312,-0.789062,1.056641,-0.394531
477388.0,-30.320312,-5.332031,-14.667969,-21.839844,-4.527344,-11.34375,-1.019531,0.583984,0.070312
477400.0,-30.132812,-4.066406,-14.515625,-21.847656,-2.292969,-11.332031,-1.396484,0.486328,0.191406
477421.0,-25.269531,-1.460938,-12.101562,-16.777344,1.34375,-8.46875,-1.964844,0.386719,0.335938
477463.0,-14.886719,-7.09375,0.15625,-6.300781,-4.90625,4.179688,-2.75,0.158203,0.671875
477479.0,-8.375,-6.941406,1.074219,-2.9375,-5.183594,5.0625,0.123047,0.148438,0.722656
477502.0,0.398438,-1.691406,-0.226562,9.085938,0.253906,3.882812,1.023438,0.222656,0.640625
477519.0,5.113281,2.40625,-0.113281,11.695312,2.996094,3.769531,1.664062,0.388672,0.509766
477542.0,5.335938,1.832031,-0.113281,14.050781,3.847656,4.019531,1.318359,0.386719,0.478516
477559.0,-0.945312,-1.730469,0.234375,10.5625,1.609375,4.433594,0.302734,0.324219,0.703125
477582.0,-3.546875,-2.839844,0.117188,5.183594,-0.988281,4.351562,0.332031,0.251953,0.839844
477614.0,-2.707031,-0.3125,0.847656,6.441406,1.796875,5.265625,0.066406,0.048828,0.675781
477633.0,-0.332031,-0.695312,1.113281,7.40625,1.582031,5.378906,-0.244141,-0.089844,0.429688
477660.0,0.972656,-2.226562,-0.417969,9.699219,-0.453125,3.960938,-0.208984,0.017578,-0.005859
477679.0,0.742188,-2.417969,-0.265625,9.769531,-0.734375,3.847656,0.013672,0.042969,-0.166016
477696.0,0.625,-2.304688,-0.113281,9.292969,-0.75,4.316406,0.089844,0.046875,-0.265625
477719.0,0.320312,-1.542969,0.347656,9.15625,-0.222656,4.621094,0.099609,0.095703,-0.628906
477734.0,0.242188,-1.347656,0.425781,8.886719,0.515625,4.742188,0.033203,0.060547,-0.753906
477749.0,-0.179688,-0.160156,0.582031,8.707031,1.117188,4.929688,-0.240234,-0.025391,-0.925781
477774.0,0.433594,0.070312,0.582031,9.050781,2.046875,4.84375,-0.732422,-0.1875,-1.072266
477813.0,2.464844,-2.730469,0.617188,10.972656,-0.523438,4.867188,-0.740234,-0.0625,-1.191406
477831.0,2.773438,-3.496094,0.769531,11.242188,-1.210938,5.027344,0.154297,0.214844,-1.269531
477853.0,3.570312,-2.800781,-1.375,11.863281,-0.144531,2.898438,1.152344,0.494141,-1.447266
477869.0,2.773438,-3.1875,-4.476562,11.671875,0.234375,1.402344,1.65625,0.826172,-1.683594
477893.0,-6.269531,-8.628906,-8.15625,1.597656,-5.125,-3.859375,2.148438,1.054688,-2.119141
477910.0,-21.742188,-12.839844,-14.628906,-5.246094,-7.304688,-7.160156,2.195312,0.699219,-2.478516
477922.0,-31.285156,-11.765625,-17.042969,-23.839844,-7.445312,-12.832031,1.75,0.441406,-2.144531
477949.0,-34.039062,-10.464844,-19.761719,-32.550781,-4.757812,-18.695312,-1.853516,-0.191406,-1.107422
477973.0,-39.410156,-18.777344,-23.554688,-32.234375,-14.222656,-19.140625,-2.425781,0.384766,-1.169922
477989.0,-35.304688,-13.070312,-22.023438,-30.953125,-12.539062,-19.199219,-2.576172,-0.5,-0.1875
478010.0,-28.792969,-3.796875,-14.363281,-24.125,-1.140625,-12.738281,-2.996094,-0.572266,0.666016
478031.0,-25.691406,-5.332031,-11.335938,-18.355469,-1.433594,-6.4375,-2.808594,-0.714844,1.583984
478049.0,-12.363281,-9.773438,-0.839844,-9.171875,-7.5625,1.722656,-1.193359,-0.869141,2.433594
478069.0,-3.894531,-7.058594,3.527344,-0.210938,-5.597656,6.703125,0.611328,-0.548828,2.318359
478089.0,8.292969,-0.964844,3.414062,13.214844,-0.523438,9.320312,1.912109,-0.240234,1.648438
478111.0,9.820312,0.835938,1.957031,17.992188,3.359375,6.707031,1.693359,-0.316406,0.966797
478129.0,-1.59375,0.070312,-0.457031,9.128906,3.679688,4.46875,0.785156,-0.501953,1.126953
478149.0,-4.8125,-1.652344,0.195312,4.421875,0.777344,4.542969,-0.085938,-0.734375,1.248047
478170.0,-2.742188,0.148438,-0.570312,4.398438,2.171875,3.996094,-0.501953,-0.933594,1.009766
478189.0,-1.75,-0.234375,-1.566406,5.839844,2.21875,3.742188,-0.478516,-0.914062,0.554688
478209.0,0.050781,-1.808594,-2.257812,8.234375,0.605469,1.996094,-0.496094,-0.730469,0.005859
478230.0,1.046875,-1.921875,-2.445312,8.839844,-0.011719,1.78125,-0.527344,-0.488281,-0.371094
478249.0,0.78125,-0.65625,-1.375,9.890625,0.535156,2.355469,-0.449219,-0.4375,-0.408203
478260.0,0.625,-0.425781,-1.183594,9.632812,1.171875,2.507812,-0.367188,-0.46875,-0.308594
478283.0,0.589844,-0.960938,-0.6875,9.464844,0.886719,3.085938,-0.216797,-0.509766,-0.126953
478300.0,0.78125,-1.117188,-0.53125,9.523438,0.8125,3.078125,-0.242188,-0.455078,-0.115234
478315.0,0.933594,-1.15625,-0.265625,10.070312,0.359375,3.613281,-0.216797,-0.382812,-0.185547
478340.0,0.625,-1.304688,0.808594,9.992188,0.289062,3.925781,-0.011719,-0.273438,-0.457031
478363.0,-0.253906,-1.34375,0.730469,8.621094,0.660156,4.230469,0.0,-0.298828,-0.525391
478380.0,-0.179688,-1.726562,0.425781,8.574219,0.554688,4.007812,0.035156,-0.345703,-0.541016
478394.0,0.050781,-1.691406,0.539062,9.15625,0.570312,4.054688,0.087891,-0.351562,-0.53125
478409.0,1.199219,-1.542969,0.003906,9.417969,0.78125,3.859375,0.318359,-0.355469,-0.523438
478433.0,2.808594,-2.074219,-1.914062,11.589844,0.292969,1.304688,0.494141,-0.316406,-0.525391
478450.0,2.425781,-3.070312,-3.867188,11.644531,0.0625,0.277344,0.744141,-0.115234,-0.742188
478473.0,-2.628906,-8.628906,-7.582031,6.003906,-5.882812,-4.496094,0.730469,-0.046875,-0.980469
478490.0,-14.277344,-13.070312,-13.175781,1.414062,-8.078125,-7.070312,1.408203,0.474609,-2.640625
478502.0,-24.082031,-15.328125,-15.625,-15.738281,-11.890625,-12.554688,1.384766,0.478516,-3.212891
478529.0,-36.417969,-15.175781,-19.304688,-39.117188,-14.386719,-17.523438,0.076172,0.359375,-2.625
478554.0,-49.332031,-19.390625,-17.082031,-41.742188,-14.648438,-13.847656,-0.962891,1.833984,-3.152344
478572.0,-47.753906,-17.089844,-17.542969,-40.355469,-12.167969,-14.105469,-2.539062,0.703125,-1.869141
478593.0,-28.871094,-3.761719,-13.902344,-21.730469,1.222656,-9.910156,-3.271484,0.083984,-0.707031
478610.0,-21.976562,-5.332031,-6.316406,-18.359375,1.566406,-6.503906,-4.060547,-0.404297,0.818359
478652.0,-8.070312,-10.960938,1.917969,-0.539062,-7.015625,6.542969,-0.126953,-0.449219,1.761719
478674.0,2.121094,1.601562,2.035156,9.957031,5.164062,6.582031,0.603516,-0.435547,1.8125
478689.0,7.101562,3.554688,1.496094,12.777344,7.375,6.066406,0.15625,-0.292969,1.714844
478714.0,-1.480469,-3.03125,2.339844,6.691406,0.015625,6.761719,0.115234,-0.304688,1.71875
478730.0,-5.15625,-4.183594,2.109375,4.480469,-1.375,6.808594,0.507812,-0.533203,1.871094
478753.0,-1.519531,0.53125,-0.648438,6.980469,3.054688,3.5625,0.554688,-0.65625,1.880859
478772.0,0.550781,0.722656,-1.601562,9.128906,3.113281,2.527344,-0.115234,-0.746094,1.277344
478790.0,-0.214844,0.339844,-2.644531,9.453125,2.722656,0.992188,-1.042969,-0.697266,0.753906
478810.0,-1.289062,-0.773438,-1.949219,7.851562,1.894531,1.566406,-1.607422,-0.638672,0.398438
478830.0,-0.597656,-1.582031,-0.839844,7.929688,0.171875,2.691406,-1.1875,-0.523438,0.25
478850.0,0.167969,-1.613281,-0.457031,8.742188,-0.003906,3.171875,-0.396484,-0.349609,0.261719
478870.0,-0.0625,-1.421875,-0.6875,8.996094,-0.121094,3.195312,0.283203,-0.224609,0.349609
478890.0,0.050781,-0.503906,-0.796875,8.867188,0.328125,2.984375,0.556641,-0.167969,0.398438
478910.0,0.742188,0.988281,-1.261719,9.574219,2.25,2.519531,0.400391,-0.154297,0.404297
478930.0,0.703125,1.0625,-0.378906,9.734375,2.386719,2.699219,0.072266,-0.132812,0.443359
478950.0,0.972656,-0.273438,0.117188,9.742188,1.78125,3.65625,-0.130859,-0.230469,0.464844
478970.0,1.511719,-0.964844,-0.074219,10.238281,0.5,3.617188,0.068359,-0.128906,0.484375
478990.0,1.96875,-2.074219,0.539062,10.929688,-0.621094,3.703125,0.570312,0.017578,0.498047
479011.0,1.929688,-1.539062,0.308594,10.953125,-0.957031,4.03125,1.103516,0.119141,0.529297
479040.0,3.265625,-1.578125,-2.257812,11.726562,0.023438,2.707031,1.484375,0.371094,0.488281
479063.0,-2.054688,-4.066406,-5.28125,6.796875,-2.964844,-1.761719,1.537109,0.621094,0.292969
479080.0,-10.671875,-5.980469,-8.617188,2.765625,-3.960938,-2.917969,1.646484,0.767578,-0.261719
479103.0,-34.269531,-10.273438,-16.277344,-25.613281,-8.828125,-12.589844,1.556641,0.681641,-1.101562
479120.0,-40.9375,-6.941406,-21.066406,-34.203125,-7.605469,-14.636719,1.150391,0.398438,-0.978516
479143.0,-39.480469,-15.023438,-24.054688,-31.066406,-12.914062,-20.179688,1.044922,1.759766,-2.279297
479174.0,-39.859375,-10.273438,-26.964844,-31.777344,-7.523438,-22.730469,0.548828,1.402344,-2.224609
479190.0,-32.207031,-7.898438,-21.871094,-29.207031,-5.859375,-20.128906,-1.248047,1.554688,-1.402344
479214.0,-23.972656,-1.808594,-18.117188,-16.28125,1.199219,-13.203125,-1.595703,1.580078,-1.191406
479241.0,-19.636719,-4.21875,-9.726562,-9.332031,-3.535156,1.207031,-2.304688,1.089844,0.302734
479255.0,-13.3125,-8.394531,1.535156,-1.511719,-6.453125,11.710938,-1.632812,0.898438,0.539062
479271.0,-0.484375,-6.210938,10.964844,3.183594,-5.589844,15.113281,0.277344,0.867188,0.275391
479295.0,4.535156,0.53125,10.613281,11.878906,3.125,16.535156,1.695312,0.988281,-0.326172
479311.0,1.429688,3.289062,9.582031,10.40625,5.179688,16.0625,1.589844,0.375,-0.214844
479332.0,-4.007812,0.109375,7.785156,3.265625,3.109375,13.671875,1.144531,-0.005859,0.09375
479344.0,-5.15625,-2.074219,7.394531,2.179688,0.925781,13.230469,0.537109,-0.644531,0.683594
479363.0,-4.507812,-1.539062,4.527344,2.992188,1.421875,10.1875,0.5625,-1.09375,0.791016
479390.0,-0.945312,2.171875,-0.570312,5.585938,5.613281,5.617188,-0.544922,-1.431641,0.214844
479414.0,0.359375,0.070312,-1.453125,8.289062,2.828125,3.726562,-1.242188,-1.410156,-0.269531
479431.0,-0.371094,-0.964844,-1.222656,7.890625,2.253906,3.695312,-1.419922,-1.216797,-0.507812
479454.0,0.320312,-1.382812,-0.035156,8.445312,1.285156,4.871094,-0.771484,-1.0625,-0.542969
479470.0,0.550781,-1.003906,0.117188,8.5625,1.5625,4.90625,0.097656,-0.908203,-0.384766
479494.0,0.167969,-1.117188,-0.417969,8.417969,1.679688,4.152344,0.789062,-0.767578,-0.212891
479513.0,-0.101562,-0.960938,-0.648438,8.171875,1.894531,3.835938,0.998047,-0.707031,-0.144531
479531.0,-0.5625,-0.351562,-0.996094,7.828125,2.511719,3.304688,0.876953,-0.730469,-0.197266
479551.0,-0.714844,-0.273438,-0.953125,7.707031,2.835938,3.117188,0.554688,-0.769531,-0.318359
479565.0,-0.675781,-0.425781,-0.878906,8.003906,2.582031,3.175781,0.365234,-0.794922,-0.414062
479581.0,0.128906,-1.34375,-0.761719,8.28125,2.332031,3.082031,0.132812,-0.84375,-0.693359
479605.0,0.742188,-1.421875,-0.917969,9.109375,2.0,2.675781,0.115234,-0.871094,-0.851562
479621.0,1.777344,-0.351562,-2.449219,9.621094,2.933594,1.949219,0.136719,-0.738281,-1.220703
479645.0,2.617188,-0.886719,-4.292969,11.007812,2.011719,-1.800781,0.060547,-0.59375,-1.28125
479661.0,1.851562,-5.140625,-6.695312,10.742188,0.597656,-2.675781,0.28125,0.085938,-1.771484
479696.0,-3.855469,-9.621094,-13.332031,-1.324219,-6.359375,-13.25,1.259766,0.925781,-2.556641
479725.0,-27.453125,-18.277344,-26.121094,-20.523438,-12.644531,-22.738281,2.009766,2.128906,-3.457031
479741.0,-24.351562,-24.445312,-28.496094,-19.019531,-15.214844,-24.753906,1.574219,3.136719,-3.117188
479764.0,-32.394531,-34.214844,-26.429688,-26.683594,-27.558594,-22.65625,1.4375,3.462891,-3.033203
479781.0,-33.390625,-31.417969,-25.738281,-29.011719,-26.375,-22.453125,0.179688,3.039062,-2.074219
479805.0,-21.820312,-27.585938,-20.757812,-17.257812,-20.40625,-16.273438,-1.589844,3.052734,-2.582031
479821.0,-19.445312,-19.960938,-15.511719,-16.890625,-17.425781,-13.800781,-3.306641,2.529297,-2.1875
479838.0,-14.65625,-10.425781,-9.765625,-15.492188,-12.785156,-10.410156,-3.734375,2.289062,-1.611328
479862.0,-6.804688,-6.632812,7.007812,-5.40625,0.859375,7.609375,-3.099609,1.720703,0.695312
479876.0,-5.695312,-5.90625,13.105469,-2.34375,1.539062,25.714844,-1.582031,1.367188,1.175781
479891.0,-9.140625,5.625,22.03125,-3.921875,5.386719,28.675781,2.25,0.984375,1.447266
479915.0,-10.519531,16.234375,21.492188,-7.050781,22.734375,28.015625,2.615234,0.271484,1.804688
479942.0,-9.105469,10.605469,20.992188,-4.964844,12.40625,25.644531,-0.361328,-2.591797,3.777344
479962.0,-9.644531,-2.917969,8.277344,-4.964844,4.539062,19.226562,-0.125,-3.791016,4.445312
479981.0,-6.691406,-2.800781,-2.296875,-2.457031,1.605469,8.457031,0.367188,-3.972656,4.136719
480002.0,-7.378906,-6.671875,-9.769531,0.449219,1.617188,-2.878906,-0.029297,-3.083984,3.097656
480021.0,-4.238281,-7.285156,-10.296875,-0.394531,-1.78125,-4.84375,-1.039062,-2.861328,2.015625
480051.0,-0.292969,-6.058594,-13.710938,6.042969,-3.167969,-9.179688,-0.308594,-1.541016,1.015625
480075.0,1.738281,-1.960938,-11.417969,9.910156,1.882812,-7.507812,0.193359,-0.955078,1.0
480091.0,2.773438,-1.84375,-9.347656,10.523438,2.035156,-6.519531,0.089844,-0.529297,1.011719
480113.0,2.425781,-1.882812,-6.929688,10.816406,1.640625,-3.226562,0.015625,-0.339844,0.931641
480124.0,1.699219,-1.308594,-6.207031,10.121094,2.144531,-2.507812,-0.166016,-0.107422,0.677734
480142.0,1.238281,-0.621094,-5.285156,9.875,2.679688,-2.046875,-0.539062,0.082031,0.458984
480156.0,0.816406,-0.964844,-4.292969,8.925781,1.6875,0.566406,-0.667969,0.181641,0.349609
480172.0,0.242188,-2.003906,-1.796875,8.765625,1.402344,1.410156,-0.648438,0.287109,0.130859
480195.0,0.050781,-2.347656,-0.878906,8.441406,0.765625,3.035156,-0.378906,0.384766,-0.011719
480211.0,0.359375,-1.425781,-0.609375,8.609375,1.058594,3.0,-0.140625,0.542969,-0.089844
480234.0,0.8125,-0.582031,0.578125,9.074219,2.511719,4.679688,0.064453,0.679688,-0.070312
480251.0,1.273438,-1.039062,0.578125,9.296875,2.4375,4.726562,0.429688,0.732422,-0.046875
480275.0,0.855469,-1.082031,0.003906,8.917969,2.085938,4.277344,0.824219,0.771484,-0.076172
480291.0,0.28125,-0.8125,-0.726562,8.71875,2.546875,3.878906,0.710938,0.71875,-0.087891
480311.0,-8.5625,-5.101562,-2.332031,2.917969,-0.378906,2.859375,0.576172,0.509766,-0.041016
480333.0,-12.820312,-7.707031,-2.871094,-4.976562,-4.394531,1.511719,0.783203,0.208984,0.017578
480352.0,-38.105469,-11.882812,-4.976562,-25.078125,-9.355469,0.898438,1.507812,-0.601562,0.773438
480372.0,-33.617188,-7.09375,-6.277344,-30.265625,-8.492188,-0.710938,0.732422,-1.158203,1.041016
480392.0,-30.480469,-10.386719,-9.496094,-23.457031,-6.042969,-3.515625,-0.167969,-0.740234,0.517578
480411.0,-25.5,-12.992188,-11.257812,-19.910156,-8.769531,-7.171875,-0.447266,-0.986328,0.023438
480441.0,-16.808594,-10.003906,-11.566406,-9.871094,-8.441406,-7.871094,-0.253906,-0.916016,-0.728516
480465.0,-13.125,-6.171875,-11.949219,-4.820312,-2.820312,-8.550781,-0.498047,-0.599609,-1.044922
480481.0,-9.5625,-5.523438,-11.644531,-3.136719,-2.207031,-8.566406,-1.025391,-0.369141,-1.0
480504.0,-4.890625,-5.214844,-8.882812,3.367188,-1.644531,-5.453125,-1.285156,-0.113281,-0.833984
480543.0,-2.9375,-4.027344,-4.359375,5.226562,-0.339844,-0.714844,-0.736328,0.275391,-0.628906
480585.0,-3.429688,-1.691406,-2.871094,4.574219,2.253906,0.917969,0.763672,0.675781,-0.615234
480601.0,-3.664062,-1.117188,-2.371094,4.441406,2.644531,1.179688,0.613281,0.652344,-0.740234
480625.0,-4.894531,-0.351562,-2.523438,2.914062,3.9375,1.390625,0.234375,0.542969,-0.828125
480642.0,-5.734375,-0.121094,-2.21875,2.355469,4.160156,1.464844,-0.275391,0.378906,-0.835938
480657.0,-5.964844,-0.121094,-1.949219,1.523438,4.15625,2.320312,-0.517578,0.316406,-0.814453
480672.0,-6.421875,-1.078125,-1.453125,1.324219,3.917969,2.566406,-0.710938,0.234375,-0.777344
480695.0,-7.953125,-2.113281,-1.527344,-0.484375,2.480469,2.714844,-0.644531,0.212891,-0.736328
480705.0,-8.417969,-2.265625,-1.605469,-0.984375,2.351562,2.667969,-0.46875,0.128906,-0.591797
480722.0,-9.40625,-2.6875,-1.644531,-1.542969,2.191406,2.628906,-0.376953,0.029297,-0.386719
480751.0,-10.101562,-3.53125,-1.875,-2.703125,1.449219,2.515625,-0.177734,-0.15625,-0.119141
480776.0,-9.183594,-3.53125,-2.371094,-1.804688,1.148438,1.964844,-0.025391,-0.238281,-0.039062
480792.0,-8.417969,-3.796875,-2.832031,-1.453125,1.074219,1.710938,-0.003906,-0.294922,-0.070312
480815.0,-7.1875,-4.257812,-3.445312,0.226562,0.4375,0.8125,-0.025391,-0.308594,-0.109375
480832.0,-6.609375,-4.488281,-3.902344,0.539062,0.328125,0.523438,-0.09375,-0.320312,-0.224609
480855.0,-6.53125,-4.757812,-4.363281,0.894531,-0.015625,-0.191406,-0.070312,-0.320312,-0.300781
480871.0,-6.996094,-4.679688,-4.746094,0.707031,0.007812,-0.40625,-0.111328,-0.294922,-0.324219
480895.0,-7.148438,-5.140625,-5.359375,0.28125,-0.320312,-1.257812,-0.169922,-0.271484,-0.341797
480912.0,-7.335938,-5.332031,-5.667969,0.234375,-0.496094,-1.382812,-0.175781,-0.207031,-0.345703
480935.0,-7.148438,-5.40625,-6.085938,0.25,-0.523438,-2.007812,-0.263672,-0.154297,-0.283203
480951.0,-6.925781,-5.753906,-6.242188,0.355469,-0.671875,-2.085938,-0.289062,-0.027344,-0.25
480975.0,-6.804688,-6.136719,-5.820312,0.554688,-1.222656,-1.695312,-0.263672,0.052734,-0.226562
480992.0,-6.609375,-6.441406,-5.589844,0.691406,-1.367188,-1.519531,0.048828,0.261719,-0.207031
481015.0,-6.808594,-6.058594,-5.320312,0.46875,-1.074219,-1.117188,0.302734,0.371094,-0.261719
481032.0,-6.996094,-5.523438,-5.089844,0.359375,-0.691406,-0.957031,0.320312,0.439453,-0.326172
481052.0,-7.414062,-5.445312,-4.59375,-0.085938,-0.382812,-0.542969,0.263672,0.443359,-0.390625
481072.0,-7.652344,-4.832031,-4.324219,-0.46875,-0.035156,-0.160156,0.166016,0.414062,-0.408203
481092.0,-7.53125,-4.757812,-3.828125,-0.625,0.53125,0.347656,0.076172,0.369141,-0.417969
481112.0,-7.496094,-4.488281,-3.445312,-0.550781,0.671875,0.730469,0.033203,0.316406,-0.382812
481132.0,-7.457031,-4.335938,-2.945312,-0.582031,1.03125,1.320312,0.041016,0.269531,-0.347656
481152.0,-7.339844,-4.183594,-2.601562,-0.597656,1.046875,1.660156,0.119141,0.226562,-0.28125
481173.0,-7.378906,-3.722656,-2.296875,-0.492188,1.785156,2.097656,0.205078,0.154297,-0.173828
481192.0,-7.535156,-3.339844,-2.140625,-0.621094,1.769531,2.179688,0.255859,0.060547,-0.025391
481212.0,-7.453125,-2.957031,-2.332031,-0.796875,2.652344,2.148438,0.111328,-0.074219,0.138672
481232.0,-7.496094,-3.378906,-2.140625,-0.738281,2.34375,2.203125,0.007812,-0.199219,0.292969
481252.0,-7.453125,-3.835938,-2.140625,-0.691406,1.800781,2.324219,0.039062,-0.287109,0.376953
481273.0,-7.492188,-4.027344,-2.179688,-0.582031,1.515625,2.125,0.148438,-0.310547,0.443359
481292.0,-7.53125,-4.566406,-2.21875,-0.578125,0.964844,2.175781,0.34375,-0.318359,0.490234
481316.0,-7.570312,-4.871094,-3.445312,-0.492188,0.441406,0.695312,0.458984,-0.326172,0.519531
481332.0,-7.378906,-4.949219,-4.402344,-0.363281,0.386719,0.183594,0.558594,-0.347656,0.644531
481356.0,-7.074219,-5.597656,-5.589844,0.207031,-0.386719,-1.667969,0.492188,-0.355469,0.689453
481373.0,-6.886719,-5.90625,-6.164062,0.339844,-0.589844,-1.992188,0.25,-0.316406,0.740234
481396.0,-6.648438,-6.519531,-6.625,0.832031,-1.496094,-2.859375,0.191406,-0.289062,0.712891
481422.0,-6.574219,-7.019531,-6.664062,0.871094,-1.734375,-2.988281,0.119141,-0.021484,0.494141
481442.0,-6.574219,-7.285156,-6.394531,1.035156,-2.371094,-2.789062,0.226562,0.150391,0.339844
481462.0,-6.613281,-7.242188,-6.242188,1.019531,-2.488281,-2.675781,0.355469,0.304688,0.1875
481477.0,-6.730469,-7.167969,-6.125,0.78125,-2.179688,-2.285156,0.390625,0.367188,0.123047
481493.0,-6.957031,-6.558594,-5.667969,0.695312,-1.988281,-2.070312,0.376953,0.443359,0.03125
481517.0,-7.152344,-6.210938,-5.246094,0.414062,-1.335938,-1.441406,0.259766,0.494141,-0.052734
481533.0,-7.230469,-6.097656,-4.785156,0.3125,-1.320312,-1.179688,0.162109,0.513672,-0.123047
481557.0,-7.191406,-6.058594,-4.171875,0.273438,-1.113281,-0.242188,0.132812,0.521484,-0.201172
481573.0,-7.226562,-5.90625,-3.75,0.28125,-1.011719,0.019531,0.144531,0.527344,-0.267578
481596.0,-7.308594,-5.523438,-3.367188,0.015625,-0.46875,0.695312,0.136719,0.515625,-0.291016
481612.0,-7.335938,-5.0625,-3.175781,-0.058594,-0.207031,0.839844,0.09375,0.46875,-0.316406
481645.0,-7.230469,-4.949219,-2.753906,-0.078125,0.238281,1.457031,0.050781,0.414062,-0.283203
481675.0,-7.226562,-4.792969,-2.257812,-0.15625,0.457031,2.015625,0.101562,0.322266,-0.210938
481692.0,-7.191406,-4.640625,-2.027344,-0.140625,0.546875,2.183594,0.216797,0.220703,-0.128906
481716.0,-7.417969,-4.449219,-1.949219,-0.417969,0.871094,2.339844,0.296875,0.146484,-0.068359
481733.0,-7.53125,-4.183594,-2.105469,-0.464844,1.007812,2.292969,0.285156,0.039062,-0.011719
481756.0,-7.417969,-3.875,-2.332031,-0.425781,1.5,1.902344,0.222656,-0.019531,0.019531
481773.0,-7.339844,-4.066406,-2.449219,-0.378906,1.421875,1.855469,0.007812,-0.1875,0.107422
481793.0,-7.339844,-4.488281,-2.945312,-0.273438,1.023438,1.515625,-0.023438,-0.275391,0.15625
481813.0,-7.417969,-4.640625,-3.558594,-0.269531,0.734375,0.941406,-0.044922,-0.332031,0.236328
481827.0,-7.375,-4.601562,-3.902344,-0.179688,0.578125,-0.101562,-0.082031,-0.355469,0.279297
481842.0,-7.226562,-4.984375,-4.863281,-0.117188,0.441406,-0.46875,-0.166016,-0.378906,0.357422
481866.0,-6.953125,-5.5625,-5.628906,0.292969,-0.398438,-1.597656,-0.201172,-0.369141,0.386719
481882.0,-6.808594,-5.90625,-5.972656,0.40625,-0.628906,-1.84375,-0.257812,-0.279297,0.380859
481907.0,-6.691406,-6.328125,-6.125,0.675781,-1.3125,-2.125,-0.201172,-0.152344,0.294922
481923.0,-6.691406,-6.558594,-6.050781,0.691406,-1.527344,-2.125,-0.074219,-0.001953,0.171875
481947.0,-6.847656,-6.289062,-5.859375,0.554688,-1.328125,-1.84375,0.052734,0.138672,0.023438
481963.0,-6.84375,-6.136719,-5.703125,0.554688,-1.210938,-1.796875,0.089844,0.230469,-0.117188
481987.0,-6.953125,-5.636719,-5.246094,0.386719,-0.628906,-1.167969,0.042969,0.287109,-0.195312
482027.0,-7.308594,-5.214844,-4.515625,-0.054688,-0.167969,-0.335938,-0.25,0.261719,-0.220703
482043.0,-7.414062,-4.984375,-4.097656,-0.113281,-0.117188,-0.105469,-0.304688,0.242188,-0.195312
482066.0,-7.378906,-4.71875,-3.636719,-0.214844,0.34375,0.675781,-0.287109,0.226562,-0.175781
482083.0,-7.269531,-4.640625,-3.328125,-0.191406,0.421875,0.898438,-0.216797,0.214844,-0.136719
482098.0,-7.304688,-4.640625,-3.136719,-0.1875,0.429688,1.261719,-0.169922,0.193359,-0.105469
482123.0,-7.414062,-4.257812,-2.449219,-0.246094,0.621094,1.796875,-0.037109,0.125,-0.027344
482146.0,-7.757812,-3.414062,-2.066406,-0.683594,1.648438,2.402344,-0.033203,0.050781,0.035156
482163.0,-7.761719,-3.492188,-1.914062,-0.683594,1.683594,2.472656,-0.005859,-0.058594,0.050781
482183.0,-7.917969,-3.453125,-1.527344,-0.792969,1.449219,2.808594,-0.001953,-0.179688,0.113281
482203.0,-8.113281,-3.378906,-1.453125,-0.921875,1.660156,2.894531,-0.029297,-0.347656,0.207031
482223.0,-8.140625,-2.496094,-1.757812,-0.980469,2.207031,2.847656,-0.111328,-0.486328,0.328125
482243.0,-8.222656,-2.417969,-1.988281,-0.949219,2.480469,2.363281,-0.388672,-0.650391,0.439453
482263.0,-8.222656,-3.339844,-1.988281,-0.847656,1.925781,2.300781,-0.566406,-0.789062,0.509766
482284.0,-8.21875,-3.605469,-2.066406,-0.769531,1.140625,2.160156,-0.494141,-0.875,0.560547
482298.0,-8.261719,-3.644531,-2.105469,-0.796875,0.902344,1.90625,-0.4375,-0.900391,0.583984
482313.0,-8.492188,-3.722656,-2.296875,-0.804688,0.792969,1.773438,-0.332031,-0.955078,0.625
482326.0,-8.496094,-3.796875,-2.332031,-0.710938,0.59375,1.574219,-0.259766,-0.966797,0.642578
482377.0,-8.261719,-4.566406,-3.101562,-0.160156,-0.457031,0.40625,0.484375,-0.810547,0.800781
482393.0,-7.917969,-4.566406,-4.058594,0.054688,-0.539062,-0.097656,0.761719,-0.699219,0.830078
482417.0,-7.835938,-4.488281,-5.128906,0.496094,-0.574219,-1.980469,0.789062,-0.599609,0.876953
482433.0,-8.070312,-4.910156,-5.667969,0.4375,-0.8125,-2.328125,0.697266,-0.521484,0.871094
482456.0,-8.453125,-5.332031,-6.242188,0.078125,-1.621094,-3.390625,0.615234,-0.455078,0.8125
482473.0,-8.566406,-5.253906,-6.546875,0.042969,-1.714844,-3.519531,0.511719,-0.386719,0.726562
482497.0,-8.5625,-4.910156,-6.96875,0.113281,-1.402344,-4.320312,0.255859,-0.269531,0.628906
482513.0,-8.335938,-5.140625,-7.046875,0.289062,-1.570312,-4.421875,-0.009766,-0.117188,0.515625
482537.0,-7.992188,-5.714844,-6.855469,0.765625,-2.386719,-4.238281,-0.087891,0.074219,0.398438
482555.0,-7.917969,-5.753906,-6.664062,0.847656,-2.457031,-4.03125,-0.001953,0.28125,0.283203
482573.0,-7.914062,-5.867188,-5.859375,0.894531,-2.65625,-3.40625,0.1875,0.453125,0.160156
482594.0,-8.03125,-5.5625,-5.398438,0.804688,-2.554688,-2.910156,0.347656,0.589844,0.03125
482609.0,-7.992188,-5.292969,-5.207031,0.65625,-1.851562,-2.132812,0.378906,0.638672,-0.03125
482647.0,-8.453125,-4.21875,-3.941406,0.164062,-0.875,-0.878906,0.146484,0.71875,-0.226562
482663.0,-8.5625,-4.066406,-3.519531,0.058594,-0.652344,-0.625,-0.037109,0.685547,-0.283203
482687.0,-8.644531,-4.21875,-2.832031,-0.152344,-0.773438,0.480469,-0.121094,0.644531,-0.316406
482703.0,-8.640625,-4.375,-2.523438,-0.183594,-0.789062,0.695312,-0.128906,0.574219,-0.337891
482727.0,-8.601562,-4.757812,-1.875,-0.246094,-1.203125,1.65625,-0.021484,0.496094,-0.369141
482743.0,-8.5625,-5.179688,-1.605469,-0.277344,-1.355469,1.820312,0.283203,0.404297,-0.4375
482767.0,-8.457031,-5.828125,-1.375,-0.21875,-2.070312,2.257812,0.824219,0.333984,-0.560547
482784.0,-8.492188,-5.90625,-1.222656,-0.296875,-1.976562,2.347656,1.453125,0.291016,-0.708984
482807.0,-8.644531,-5.980469,-1.453125,-0.566406,-1.777344,2.039062,1.753906,0.277344,-0.78125
482846.0,-8.566406,-5.40625,-1.300781,-0.683594,-0.546875,1.785156,3.017578,0.011719,-1.037109
482887.0,-8.140625,-3.722656,-1.183594,-0.464844,1.839844,1.121094,3.925781,-0.1875,-0.794922
482903.0,-8.035156,-2.839844,-1.109375,-0.496094,2.371094,0.878906,4.064453,-0.279297,-0.537109
482926.0,-7.992188,-1.460938,-0.53125,-0.40625,4.554688,0.75,3.880859,-0.375,-0.195312
482957.0,-8.070312,-0.351562,0.5,-0.453125,5.734375,1.054688,3.349609,-0.466797,0.197266
482973.0,-8.035156,0.109375,1.34375,-0.496094,5.902344,1.257812,1.921875,-0.695312,0.736328
482997.0,-8.335938,-0.234375,2.261719,-0.539062,5.632812,2.128906,1.337891,-0.804688,0.914062
483014.0,-8.875,-0.695312,2.644531,-0.667969,5.339844,2.296875,-0.697266,-1.1875,1.353516
483026.0,-8.949219,-1.039062,2.835938,-0.941406,4.515625,2.484375,-1.433594,-1.361328,1.443359
483076.0,-10.027344,-3.492188,1.304688,-1.632812,1.460938,1.054688,-4.232422,-1.908203,1.599609
483096.0,-10.0625,-3.722656,0.808594,-1.601562,1.097656,0.628906,-5.480469,-2.152344,1.416016
483123.0,-10.101562,-4.949219,-1.261719,-1.460938,-0.242188,-0.984375,-5.5625,-2.410156,1.074219
483141.0,-9.945312,-5.714844,-1.875,-1.40625,-0.582031,-1.207031,-5.332031,-2.482422,0.9375
483156.0,-9.910156,-5.867188,-2.179688,-1.132812,-1.8125,-2.371094,-5.03125,-2.529297,0.787109
483187.0,-9.910156,-5.945312,-2.714844,-1.054688,-1.921875,-2.863281,-3.783203,-2.578125,0.195312
483206.0,-10.066406,-5.636719,-2.679688,-1.210938,-1.605469,-3.0,-3.511719,-2.558594,0.066406
483237.0,-10.027344,-5.179688,-2.449219,-1.234375,-1.046875,-3.058594,-2.703125,-2.285156,-0.367188
483253.0,-9.792969,-4.949219,-2.296875,-1.1875,-0.835938,-2.992188,-2.470703,-2.056641,-0.511719
483266.0,-9.789062,-4.910156,-2.296875,-1.113281,-0.597656,-3.132812,-2.373047,-1.910156,-0.5625
483285.0,-9.488281,-4.410156,-2.257812,-1.039062,-0.257812,-3.269531,-2.1875,-1.566406,-0.648438
483308.0,-9.101562,-4.144531,-2.027344,-0.394531,0.589844,-2.949219,-1.933594,-1.214844,-0.697266
483324.0,-8.601562,-3.835938,-1.875,-0.289062,0.78125,-2.914062,-1.589844,-0.880859,-0.671875
483349.0,-8.300781,-3.796875,-1.796875,0.050781,1.109375,-2.78125,-1.224609,-0.580078,-0.605469
483369.0,-8.144531,-3.914062,-1.644531,0.152344,1.109375,-2.597656,-0.853516,-0.300781,-0.505859
483388.0,-8.109375,-4.066406,-1.566406,0.132812,0.996094,-2.433594,-0.464844,-0.033203,-0.382812
483404.0,-8.074219,-4.257812,-1.414062,0.15625,0.921875,-2.367188,-0.060547,0.242188,-0.246094
483444.0,-8.109375,-4.296875,-0.839844,0.085938,0.859375,-1.765625,0.736328,0.744141,-0.009766
483468.0,-8.222656,-4.144531,-0.570312,0.003906,1.027344,-1.273438,1.119141,0.939453,0.089844
483508.0,-8.640625,-3.953125,-0.1875,-0.355469,1.132812,-0.804688,1.707031,1.238281,0.216797
483524.0,-8.800781,-3.953125,0.003906,-0.414062,1.09375,-0.714844,1.910156,1.341797,0.251953
483548.0,-8.949219,-3.953125,0.269531,-0.582031,0.992188,-0.269531,2.0625,1.400391,0.273438
483564.0,-9.023438,-3.953125,0.460938,-0.597656,0.917969,-0.175781,2.160156,1.419922,0.277344
483587.0,-9.105469,-3.835938,0.65625,-0.652344,0.96875,0.1875,2.177734,1.388672,0.267578
483629.0,-9.179688,-3.570312,0.921875,-0.664062,1.109375,0.507812,1.898438,1.169922,0.236328
483667.0,-9.222656,-3.53125,1.113281,-0.632812,1.03125,0.761719,1.316406,0.847656,0.265625
483684.0,-9.183594,-3.53125,1.191406,-0.625,1.007812,0.777344,0.947266,0.691406,0.292969
483701.0,-9.140625,-3.570312,1.265625,-0.570312,0.976562,0.871094,0.759766,0.621094,0.310547
483725.0,-9.023438,-3.683594,1.496094,-0.402344,0.769531,1.171875,0.25,0.417969,0.363281
483755.0,-8.757812,-3.914062,1.574219,-0.117188,0.476562,1.441406,-0.052734,0.267578,0.396484
483778.0,-8.71875,-4.066406,1.535156,0.054688,0.136719,1.441406,-0.105469,0.234375,0.388672
483794.0,-8.605469,-4.183594,1.535156,0.144531,0.066406,1.464844,-0.154297,0.109375,0.404297
483817.0,-8.71875,-4.601562,1.230469,0.117188,-0.539062,1.199219,-0.121094,0.083984,0.400391
483834.0,-8.683594,-4.71875,1.191406,0.140625,-0.695312,1.175781,0.070312,0.085938,0.359375
483858.0,-8.457031,-4.792969,1.382812,0.445312,-0.871094,1.375,0.269531,0.115234,0.326172
483875.0,-8.378906,-4.792969,1.457031,0.5,-0.933594,1.449219,0.507812,0.134766,0.298828
483899.0,-8.457031,-4.757812,1.152344,0.492188,-0.9375,1.113281,0.681641,0.117188,0.271484
483914.0,-8.496094,-4.71875,0.960938,0.460938,-0.960938,0.984375,0.699219,0.076172,0.228516
483938.0,-8.457031,-4.71875,1.0,0.523438,-0.984375,0.882812,0.603516,0.019531,0.185547
483954.0,-8.496094,-4.792969,1.039062,0.492188,-1.039062,0.898438,0.509766,-0.046875,0.154297
483978.0,-8.5625,-4.792969,0.921875,0.425781,-1.113281,0.703125,0.398438,-0.132812,0.109375
483994.0,-8.679688,-4.71875,0.808594,0.394531,-1.09375,0.632812,0.1875,-0.244141,0.064453
484034.0,-8.796875,-4.871094,0.5,0.203125,-1.136719,0.210938,-0.423828,-0.462891,-0.041016
484058.0,-8.878906,-5.0625,0.425781,0.109375,-1.382812,-0.011719,-0.667969,-0.529297,-0.111328
484074.0,-8.875,-5.101562,0.347656,0.101562,-1.40625,-0.082031,-0.837891,-0.558594,-0.197266
484098.0,-8.878906,-5.101562,0.308594,0.070312,-1.328125,-0.214844,-0.939453,-0.566406,-0.285156
484115.0,-8.878906,-5.0625,0.308594,0.054688,-1.296875,-0.230469,-0.986328,-0.560547,-0.376953
484135.0,-8.945312,-4.949219,0.234375,-0.019531,-1.09375,-0.292969,-0.996094,-0.537109,-0.474609
484155.0,-8.90625,-4.832031,0.269531,-0.082031,-1.011719,-0.34375,-0.96875,-0.505859,-0.574219
484184.0,-8.90625,-4.71875,0.269531,-0.113281,-0.683594,-0.324219,-0.841797,-0.453125,-0.679688
484207.0,-8.90625,-4.601562,0.234375,-0.246094,-0.234375,-0.375,-0.802734,-0.435547,-0.705078
484219.0,-8.949219,-4.527344,0.234375,-0.316406,-0.089844,-0.382812,-0.746094,-0.40625,-0.734375
484235.0,-8.910156,-4.449219,0.234375,-0.316406,0.027344,-0.375,-0.6875,-0.376953,-0.746094
484249.0,-8.875,-4.449219,0.269531,-0.320312,0.207031,-0.308594,-0.660156,-0.359375,-0.742188
484264.0,-8.757812,-4.375,0.386719,-0.351562,0.34375,-0.269531,-0.570312,-0.318359,-0.726562
484289.0,-8.679688,-4.183594,0.425781,-0.316406,0.738281,-0.191406,-0.488281,-0.285156,-0.691406
484329.0,-8.722656,-3.953125,0.539062,-0.476562,1.1875,-0.070312,-0.382812,-0.226562,-0.5625
484345.0,-8.796875,-3.953125,0.617188,-0.554688,1.234375,-0.03125,-0.345703,-0.197266,-0.470703
484367.0,-8.796875,-3.988281,0.578125,-0.664062,1.316406,-0.023438,-0.316406,-0.166016,-0.371094
484408.0,-8.417969,-3.988281,0.578125,-0.34375,1.417969,-0.007812,-0.224609,-0.091797,-0.207031
484425.0,-8.261719,-3.953125,0.539062,-0.273438,1.433594,-0.078125,-0.142578,-0.076172,-0.138672
484448.0,-8.074219,-3.796875,0.5,-0.03125,1.65625,-0.078125,-0.058594,-0.074219,-0.087891
484465.0,-8.03125,-3.722656,0.460938,0.0,1.699219,-0.046875,-0.011719,-0.083984,-0.033203
484485.0,-7.992188,-3.683594,0.460938,0.078125,1.738281,-0.125,-0.025391,-0.091797,0.025391
484520.0,-8.03125,-3.761719,0.425781,-0.023438,1.609375,-0.222656,-0.076172,-0.085938,0.121094
484535.0,-7.996094,-3.953125,0.386719,0.015625,1.554688,-0.230469,-0.042969,-0.052734,0.191406
484574.0,-8.074219,-4.183594,0.195312,0.140625,1.238281,-0.316406,0.126953,0.009766,0.351562
484599.0,-8.417969,-4.410156,0.078125,-0.257812,0.839844,-0.5625,0.222656,0.074219,0.416016
484615.0,-8.523438,-4.527344,0.15625,-0.273438,0.714844,-0.523438,0.34375,0.169922,0.478516
484638.0,-8.605469,-4.601562,0.269531,-0.339844,0.46875,-0.386719,0.457031,0.269531,0.544922
484655.0,-8.601562,-4.566406,0.15625,-0.308594,0.414062,-0.421875,0.513672,0.335938,0.591797
484679.0,-8.683594,-4.335938,0.003906,-0.300781,0.515625,-0.636719,0.429688,0.333984,0.615234
484695.0,-8.761719,-4.449219,0.003906,-0.261719,0.378906,-0.582031,0.273438,0.296875,0.628906
484719.0,-8.875,-4.679688,0.078125,-0.351562,-0.0625,-0.507812,0.144531,0.275391,0.628906
484735.0,-8.90625,-4.792969,0.15625,-0.355469,-0.195312,-0.445312,0.089844,0.275391,0.605469
484759.0,-8.839844,-4.871094,0.269531,-0.203125,-0.472656,-0.238281,0.089844,0.292969,0.558594
484775.0,-8.71875,-4.949219,0.234375,-0.140625,-0.597656,-0.175781,0.150391,0.322266,0.490234
484797.0,-8.605469,-4.984375,0.347656,0.121094,-0.765625,-0.074219,0.208984,0.333984,0.451172
484830.0,-8.566406,-4.910156,0.425781,0.207031,-0.785156,0.058594,0.474609,0.369141,0.289062
484855.0,-8.605469,-4.792969,0.578125,0.152344,-0.722656,0.15625,0.564453,0.367188,0.179688
484875.0,-8.640625,-4.792969,0.65625,0.175781,-0.71875,0.335938,0.556641,0.347656,0.132812
484897.0,-8.601562,-4.757812,0.691406,0.222656,-0.742188,0.386719,0.533203,0.328125,0.097656
484916.0,-8.679688,-4.71875,0.769531,0.109375,-0.765625,0.441406,0.498047,0.292969,0.076172
484936.0,-8.761719,-4.757812,0.769531,0.125,-0.75,0.582031,0.472656,0.269531,0.054688
484950.0,-8.722656,-4.757812,0.769531,0.160156,-0.757812,0.589844,0.457031,0.259766,0.041016
484965.0,-8.605469,-4.679688,0.921875,0.207031,-0.765625,0.632812,0.431641,0.234375,0.017578
484989.0,-8.523438,-4.679688,0.921875,0.324219,-0.734375,0.679688,0.421875,0.203125,-0.005859
485006.0,-8.527344,-4.601562,0.921875,0.324219,-0.695312,0.679688,0.386719,0.166016,-0.037109
485030.0,-8.566406,-4.527344,1.0,0.277344,-0.566406,0.75,0.333984,0.115234,-0.068359
485045.0,-8.605469,-4.527344,0.960938,0.277344,-0.558594,0.710938,0.271484,0.0625,-0.087891
485069.0,-8.71875,-4.488281,0.921875,0.117188,-0.496094,0.65625,0.193359,0.003906,-0.113281
485085.0,-8.761719,-4.410156,0.960938,0.070312,-0.410156,0.640625,0.091797,-0.052734,-0.130859
485109.0,-8.761719,-4.449219,0.921875,0.054688,-0.410156,0.617188,0.011719,-0.109375,-0.146484
485125.0,-8.761719,-4.449219,0.847656,0.046875,-0.402344,0.5625,-0.041016,-0.162109,-0.166016
485149.0,-8.71875,-4.449219,0.769531,0.0625,-0.347656,0.410156,-0.076172,-0.201172,-0.181641
485165.0,-8.644531,-4.488281,0.730469,0.089844,-0.332031,0.394531,-0.09375,-0.216797,-0.205078
485189.0,-8.722656,-4.527344,0.65625,0.023438,-0.355469,0.234375,-0.050781,-0.234375,-0.21875
485205.0,-8.566406,-4.488281,0.617188,0.121094,-0.253906,0.171875,0.013672,-0.210938,-0.242188
485229.0,-8.644531,-4.449219,0.539062,0.050781,-0.191406,0.039062,0.035156,-0.191406,-0.236328
485246.0,-8.679688,-4.375,0.5,0.042969,-0.128906,-0.054688,0.013672,-0.185547,-0.222656
485260.0,-8.683594,-4.296875,0.460938,-0.019531,0.03125,-0.09375,-0.017578,-0.1875,-0.21875
485286.0,-8.679688,-4.335938,0.425781,-0.042969,0.0625,-0.160156,-0.107422,-0.191406,-0.181641
485300.0,-8.644531,-4.375,0.386719,-0.019531,0.015625,-0.261719,-0.123047,-0.189453,-0.173828
485315.0,-8.640625,-4.335938,0.308594,-0.066406,0.039062,-0.347656,-0.150391,-0.1875,-0.158203
485339.0,-8.601562,-4.296875,0.269531,-0.019531,0.164062,-0.378906,-0.167969,-0.179688,-0.150391
485355.0,-8.605469,-4.335938,0.269531,-0.027344,0.140625,-0.347656,-0.195312,-0.146484,-0.130859
485380.0,-8.566406,-4.375,0.269531,-0.003906,0.132812,-0.394531,-0.177734,-0.115234,-0.125
485396.0,-8.523438,-4.335938,0.308594,-0.011719,0.148438,-0.355469,-0.148438,-0.082031,-0.113281
485419.0,-8.566406,-4.335938,0.308594,-0.027344,0.21875,-0.355469,-0.097656,-0.048828,-0.103516
485436.0,-8.5625,-4.296875,0.308594,-0.035156,0.226562,-0.355469,-0.058594,-0.019531,-0.082031
485459.0,-8.5625,-4.257812,0.386719,-0.042969,0.320312,-0.277344,-0.042969,-0.003906,-0.070312
485475.0,-8.523438,-4.257812,0.425781,-0.042969,0.328125,-0.230469,-0.041016,0.029297,-0.03125
485500.0,-8.496094,-4.183594,0.460938,0.023438,0.410156,-0.1875,-0.044922,0.044922,0.0
485516.0,-8.496094,-4.183594,0.460938,0.023438,0.375,-0.140625,-0.050781,0.058594,0.025391
485539.0,-8.566406,-4.21875,0.539062,-0.042969,0.367188,-0.078125,-0.060547,0.0625,0.056641
485555.0,-8.605469,-4.21875,0.578125,-0.042969,0.359375,0.007812,-0.072266,0.068359,0.083984
485579.0,-8.566406,-4.257812,0.617188,-0.027344,0.296875,0.039062,-0.068359,0.074219,0.097656
485595.0,-8.527344,-4.296875,0.617188,0.019531,0.25,0.046875,-0.033203,0.087891,0.132812
485617.0,-8.496094,-4.257812,0.65625,0.070312,0.25,0.109375,-0.027344,0.087891,0.144531
485651.0,-8.527344,-4.335938,0.691406,0.058594,0.132812,0.167969,-0.03125,0.082031,0.167969
485690.0,-8.5625,-4.410156,0.730469,0.050781,-0.003906,0.246094,-0.033203,0.072266,0.181641
485706.0,-8.5625,-4.449219,0.769531,0.058594,-0.058594,0.253906,0.011719,0.068359,0.169922
485730.0,-8.605469,-4.449219,0.730469,0.042969,-0.097656,0.269531,0.025391,0.068359,0.162109
485746.0,-8.644531,-4.449219,0.769531,0.050781,-0.152344,0.308594,0.066406,0.048828,0.132812
485770.0,-8.601562,-4.488281,0.691406,0.066406,-0.183594,0.230469,0.074219,0.035156,0.111328
485787.0,-8.605469,-4.449219,0.730469,0.066406,-0.191406,0.238281,0.074219,0.015625,0.087891
485810.0,-8.601562,-4.488281,0.730469,0.082031,-0.222656,0.269531,0.064453,0.0,0.072266
485826.0,-8.601562,-4.488281,0.691406,0.082031,-0.222656,0.230469,0.048828,-0.009766,0.054688
485850.0,-8.527344,-4.566406,0.617188,0.167969,-0.324219,0.140625,0.042969,-0.013672,0.042969
485866.0,-8.457031,-4.601562,0.578125,0.167969,-0.359375,0.132812,0.046875,-0.003906,0.027344
485889.0,-8.378906,-4.757812,0.578125,0.320312,-0.523438,0.085938,0.083984,0.015625,0.003906
485906.0,-8.378906,-4.71875,0.617188,0.359375,-0.515625,0.078125,0.148438,0.039062,-0.025391
485929.0,-8.523438,-4.71875,0.617188,0.160156,-0.476562,0.109375,0.201172,0.046875,-0.072266
485946.0,-8.605469,-4.757812,0.578125,0.121094,-0.46875,0.109375,0.220703,0.037109,-0.123047
485969.0,-8.679688,-4.832031,0.539062,-0.011719,-0.542969,0.007812,0.21875,0.021484,-0.185547
485986.0,-8.722656,-4.71875,0.617188,-0.054688,-0.488281,0.0,0.210938,-0.003906,-0.248047
486009.0,-8.945312,-4.640625,0.617188,-0.324219,-0.265625,0.039062,0.228516,-0.056641,-0.296875
486026.0,-9.023438,-4.527344,0.578125,-0.417969,-0.203125,-0.015625,0.216797,-0.099609,-0.337891
486041.0,-8.984375,-4.410156,0.539062,-0.371094,0.15625,-0.164062,0.173828,-0.115234,-0.345703
486056.0,-8.796875,-4.21875,0.578125,-0.3125,0.21875,-0.140625,0.064453,-0.144531,-0.320312
486079.0,-8.566406,-4.183594,0.578125,-0.042969,0.371094,-0.109375,0.027344,-0.152344,-0.294922
486089.0,-8.457031,-4.183594,0.539062,0.054688,0.394531,-0.164062,-0.021484,-0.140625,-0.208984
486119.0,-8.070312,-4.183594,0.425781,0.421875,0.425781,-0.292969,-0.058594,-0.105469,-0.087891
486159.0,-8.035156,-4.21875,0.5,0.476562,0.359375,-0.21875,-0.115234,0.011719,0.179688
486170.0,-8.035156,-4.21875,0.578125,0.484375,0.335938,-0.125,-0.117188,0.085938,0.271484
486200.0,-8.375,-4.296875,0.65625,0.1875,0.1875,-0.007812,-0.085938,0.126953,0.322266
486216.0,-8.679688,-4.375,0.65625,0.085938,0.117188,0.007812,-0.058594,0.132812,0.339844
486240.0,-8.949219,-4.449219,0.730469,-0.324219,-0.082031,0.121094,-0.066406,0.111328,0.318359
486256.0,-9.066406,-4.488281,0.769531,-0.386719,-0.144531,0.136719,-0.111328,0.064453,0.271484
486280.0,-9.105469,-4.527344,0.769531,-0.433594,-0.253906,0.207031,-0.144531,0.013672,0.199219
486296.0,-9.066406,-4.527344,0.769531,-0.433594,-0.222656,0.253906,-0.152344,-0.039062,0.115234
486320.0,-8.945312,-4.527344,0.691406,-0.253906,-0.285156,0.136719,-0.132812,-0.082031,0.039062
486337.0,-8.839844,-4.566406,0.691406,-0.179688,-0.324219,0.136719,-0.087891,-0.095703,-0.023438
486377.0,-8.496094,-4.410156,0.578125,0.113281,-0.191406,0.0,-0.015625,-0.074219,-0.078125
486396.0,-8.453125,-4.296875,0.539062,0.21875,-0.070312,-0.046875,-0.005859,-0.068359,-0.080078
486437.0,-8.492188,-4.296875,0.5,0.210938,-0.007812,-0.0625,-0.058594,-0.050781,-0.044922
486457.0,-8.492188,-4.296875,0.5,0.164062,0.007812,-0.070312,-0.087891,-0.042969,-0.021484
486471.0,-8.496094,-4.335938,0.539062,0.121094,-0.023438,-0.070312,-0.095703,-0.042969,-0.011719
486486.0,-8.5625,-4.296875,0.539062,0.082031,0.015625,-0.070312,-0.117188,-0.044922,0.001953
486526.0,-8.761719,-4.488281,0.65625,-0.070312,-0.097656,0.007812,-0.171875,-0.066406,0.003906
486551.0,-8.945312,-4.757812,0.847656,-0.300781,-0.4375,0.246094,-0.15625,-0.089844,-0.019531
486566.0,-9.183594,-4.984375,0.960938,-0.417969,-0.589844,0.320312,-0.15625,-0.15625,-0.083984
486591.0,-9.710938,-4.910156,1.113281,-1.089844,-0.558594,0.488281,-0.275391,-0.279297,-0.175781
486606.0,-9.753906,-4.832031,1.191406,-1.175781,-0.535156,0.472656,-0.566406,-0.439453,-0.324219
486630.0,-9.90625,-5.636719,0.960938,-1.351562,-1.152344,0.273438,-0.916016,-0.669922,-0.533203
486646.0,-9.300781,-7.015625,0.195312,-1.15625,-1.625,-0.085938,-0.853516,-0.814453,-0.919922
486664.0,-9.566406,-7.746094,0.347656,-0.8125,-2.398438,-0.53125,-0.667969,-0.908203,-1.101562
486687.0,-10.40625,-8.472656,0.117188,-1.773438,-3.105469,-0.855469,-0.0625,-1.140625,-1.65625
486741.0,-10.066406,-8.050781,2.492188,-2.5,-2.160156,0.921875,0.742188,-1.185547,-2.388672
486767.0,-9.566406,-7.820312,3.183594,-2.085938,-1.59375,1.507812,1.511719,-1.375,-2.689453
486781.0,-9.144531,-7.9375,3.566406,-2.097656,-1.457031,1.351562,1.554688,-1.439453,-2.728516
486797.0,-8.457031,-8.433594,3.71875,-2.125,-1.417969,1.171875,1.634766,-1.587891,-2.771484
486821.0,-7.035156,-8.125,3.605469,-1.136719,-1.035156,0.457031,1.699219,-1.642578,-2.724609
486839.0,-6.382812,-7.742188,3.527344,-0.742188,-0.542969,0.152344,1.492188,-1.681641,-2.591797
486861.0,-4.046875,-6.019531,3.566406,0.875,1.441406,-0.371094,1.113281,-1.634766,-2.369141
486877.0,-3.089844,-5.367188,3.566406,1.085938,2.015625,-0.613281,0.75,-1.574219,-2.136719
486901.0,-2.476562,-4.792969,3.257812,1.539062,2.925781,-1.210938,0.636719,-1.478516,-1.910156
486919.0,-2.285156,-4.722656,3.105469,1.503906,3.054688,-1.480469,0.552734,-1.339844,-1.708984
486940.0,-1.480469,-4.640625,2.835938,1.746094,3.234375,-2.007812,0.533203,-1.181641,-1.486328
486956.0,-1.328125,-4.5625,2.800781,1.726562,3.296875,-2.054688,0.529297,-0.974609,-1.263672
486980.0,-1.136719,-4.527344,3.105469,1.496094,3.394531,-2.027344,0.529297,-0.876953,-1.150391
487020.0,-1.402344,-5.027344,3.71875,0.832031,2.882812,-1.609375,0.423828,-0.492188,-0.740234
487036.0,-1.59375,-5.292969,4.0625,0.644531,2.636719,-1.464844,0.251953,-0.296875,-0.457031
487049.0,-1.59375,-5.25,4.140625,0.46875,2.621094,-1.273438,0.138672,-0.251953,-0.361328
487067.0,-1.785156,-5.75,4.828125,0.265625,2.320312,-0.867188,-0.091797,-0.164062,-0.191406
487100.0,-2.746094,-7.441406,5.980469,-0.808594,0.476562,0.597656,-0.228516,-0.09375,-0.066406
487117.0,-3.28125,-8.046875,6.476562,-1.113281,0.222656,0.917969,-0.162109,-0.078125,-0.03125
487137.0,-3.472656,-8.550781,6.785156,-1.550781,-0.535156,1.324219,0.044922,-0.166016,-0.078125
487157.0,-3.128906,-8.472656,6.898438,-1.429688,-0.617188,1.5,0.234375,-0.267578,-0.121094
487172.0,-2.972656,-8.320312,6.859375,-1.015625,-0.25,1.347656,0.296875,-0.298828,-0.125
487187.0,-2.628906,-7.707031,6.246094,-0.933594,-0.082031,1.117188,0.316406,-0.34375,-0.103516
487212.0,-2.285156,-7.09375,5.519531,-0.550781,0.75,0.003906,0.1875,-0.388672,-0.037109
487227.0,-1.976562,-6.902344,5.175781,-0.382812,0.886719,-0.171875,0.054688,-0.40625,0.056641
487251.0,-1.671875,-6.824219,5.019531,-0.007812,0.996094,-0.542969,-0.035156,-0.390625,0.152344
487267.0,-1.558594,-6.941406,4.945312,0.070312,0.949219,-0.542969,-0.072266,-0.357422,0.232422
487291.0,-1.367188,-7.167969,5.019531,0.296875,0.644531,-0.550781,-0.066406,-0.330078,0.291016
487307.0,-1.289062,-7.324219,5.136719,0.335938,0.558594,-0.472656,-0.033203,-0.300781,0.332031
487331.0,-1.25,-7.667969,5.328125,0.445312,0.113281,-0.25,0.072266,-0.265625,0.355469
487347.0,-1.25,-7.824219,5.441406,0.421875,-0.007812,-0.226562,0.220703,-0.251953,0.375
487371.0,-1.25,-7.863281,5.75,0.507812,-0.15625,0.085938,0.298828,-0.216797,0.378906
487387.0,-1.328125,-7.898438,5.824219,0.484375,-0.21875,0.101562,0.28125,-0.203125,0.378906
487410.0,-1.289062,-7.941406,6.015625,0.53125,-0.328125,0.257812,0.177734,-0.226562,0.375
487427.0,-1.289062,-7.9375,6.09375,0.546875,-0.34375,0.242188,0.070312,-0.253906,0.365234
487450.0,-1.328125,-8.089844,5.980469,0.546875,-0.535156,0.183594,0.013672,-0.279297,0.349609
487481.0,-1.367188,-8.128906,5.941406,0.523438,-0.605469,0.121094,0.046875,-0.304688,0.330078
487498.0,-1.328125,-7.941406,5.824219,0.5625,-0.574219,0.027344,0.111328,-0.341797,0.296875
487521.0,-1.367188,-7.742188,5.671875,0.53125,-0.269531,-0.203125,0.089844,-0.349609,0.285156
487537.0,-1.367188,-7.707031,5.710938,0.53125,-0.238281,-0.210938,-0.064453,-0.371094,0.263672
487561.0,-1.441406,-7.667969,5.597656,0.449219,-0.199219,-0.292969,-0.105469,-0.367188,0.255859
487579.0,-1.402344,-7.707031,5.558594,0.480469,-0.238281,-0.316406,-0.164062,-0.332031,0.224609
487602.0,-1.59375,-7.515625,5.480469,0.273438,-0.03125,-0.378906,-0.181641,-0.291016,0.210938
487617.0,-1.632812,-7.398438,5.441406,0.234375,0.054688,-0.371094,-0.25,-0.255859,0.193359
487641.0,-1.710938,-7.359375,5.480469,0.15625,0.164062,-0.324219,-0.292969,-0.238281,0.183594
487680.0,-1.902344,-7.628906,5.558594,-0.035156,-0.042969,-0.152344,-0.332031,-0.162109,0.166016
487691.0,-1.941406,-7.585938,5.632812,-0.066406,0.011719,-0.0625,-0.306641,-0.134766,0.150391
487708.0,-2.054688,-7.554688,5.75,-0.179688,0.0625,0.0,-0.355469,-0.117188,0.134766
487727.0,-2.171875,-7.707031,5.671875,-0.289062,0.058594,0.054688,-0.398438,-0.101562,0.115234
487748.0,-2.207031,-7.898438,5.671875,-0.28125,-0.035156,0.078125,-0.339844,-0.097656,0.089844
487767.0,-2.246094,-8.007812,5.75,-0.308594,-0.292969,0.242188,-0.199219,-0.072266,0.050781
487790.0,-2.132812,-7.96875,5.824219,-0.363281,-0.277344,0.257812,0.033203,-0.056641,0.005859
487805.0,-1.976562,-7.742188,5.980469,-0.171875,-0.15625,0.371094,0.138672,-0.050781,-0.015625
487832.0,-1.976562,-7.4375,5.902344,-0.109375,0.34375,0.363281,0.240234,-0.021484,-0.044922
487847.0,-1.941406,-7.203125,5.863281,-0.117188,0.402344,0.300781,0.128906,-0.027344,-0.050781
487872.0,-1.863281,-7.09375,5.789062,-0.019531,0.578125,0.203125,0.039062,-0.033203,-0.046875
487887.0,-1.824219,-7.359375,5.789062,-0.019531,0.472656,0.171875,-0.130859,-0.039062,-0.041016
487912.0,-1.824219,-7.515625,5.75,0.003906,0.179688,0.195312,-0.121094,-0.041016,-0.041016
487928.0,-1.785156,-7.4375,5.789062,-0.003906,0.226562,0.15625,-0.019531,-0.037109,-0.033203
487951.0,-1.824219,-7.480469,5.789062,-0.019531,0.234375,0.234375,0.009766,-0.03125,-0.035156
487967.0,-1.824219,-7.515625,5.75,-0.027344,0.226562,0.242188,0.009766,-0.033203,-0.023438
487992.0,-1.902344,-7.476562,5.710938,-0.113281,0.21875,0.164062,-0.046875,-0.046875,-0.003906
488008.0,-1.824219,-7.515625,5.75,-0.035156,0.226562,0.203125,-0.09375,-0.056641,0.011719
488032.0,-1.824219,-7.664062,5.789062,-0.050781,0.050781,0.265625,-0.115234,-0.068359,0.025391
488048.0,-1.824219,-7.707031,5.671875,-0.058594,0.058594,0.195312,-0.083984,-0.066406,0.039062
488072.0,-1.785156,-7.785156,5.558594,-0.019531,-0.046875,0.050781,-0.025391,-0.070312,0.042969
488088.0,-1.824219,-7.820312,5.597656,-0.019531,-0.09375,0.050781,0.046875,-0.070312,0.052734
488111.0,-1.75,-7.667969,5.558594,0.015625,0.050781,0.035156,0.056641,-0.070312,0.060547
488128.0,-1.75,-7.667969,5.632812,0.054688,0.042969,0.066406,0.001953,-0.070312,0.070312
488149.0,-1.75,-7.707031,5.632812,0.023438,0.003906,0.101562,-0.035156,-0.070312,0.078125
488161.0,-1.75,-7.707031,5.632812,0.023438,0.011719,0.109375,-0.099609,-0.082031,0.083984
488191.0,-1.75,-7.898438,5.597656,0.03125,-0.164062,0.097656,-0.15625,-0.078125,0.066406
488208.0,-1.75,-7.972656,5.519531,0.03125,-0.203125,0.066406,-0.107422,-0.066406,0.042969
488231.0,-1.710938,-8.089844,5.480469,0.0625,-0.347656,0.003906,0.023438,-0.052734,0.015625
488248.0,-1.671875,-7.96875,5.558594,0.101562,-0.308594,0.074219,0.142578,-0.033203,-0.007812
488268.0,-1.671875,-7.703125,5.519531,0.09375,0.019531,0.011719,0.113281,-0.013672,-0.019531
488288.0,-1.710938,-7.667969,5.519531,0.09375,0.089844,-0.003906,0.03125,0.0,-0.027344
488308.0,-1.632812,-7.820312,5.558594,0.085938,-0.070312,0.035156,0.011719,0.009766,-0.037109
488328.0,-1.671875,-7.78125,5.519531,0.085938,-0.109375,-0.011719,0.03125,0.023438,-0.044922
488343.0,-1.632812,-7.820312,5.519531,0.117188,-0.070312,-0.011719,0.041016,0.03125,-0.052734
488359.0,-1.632812,-7.785156,5.558594,0.15625,-0.070312,0.019531,0.072266,0.037109,-0.056641
488382.0,-1.632812,-7.78125,5.597656,0.109375,-0.085938,0.042969,0.072266,0.042969,-0.054688
488398.0,-1.59375,-7.746094,5.558594,0.148438,-0.058594,0.042969,0.046875,0.037109,-0.046875
488422.0,-1.632812,-7.742188,5.597656,0.101562,-0.058594,0.027344,0.015625,0.03125,-0.039062
488438.0,-1.59375,-7.78125,5.597656,0.101562,-0.085938,0.027344,0.007812,0.023438,-0.039062
488478.0,-1.632812,-7.785156,5.632812,0.09375,-0.058594,0.054688,0.011719,0.009766,-0.025391
488501.0,-1.632812,-7.742188,5.671875,0.085938,-0.058594,0.09375,-0.003906,0.0,-0.017578
488518.0,-1.632812,-7.746094,5.632812,0.078125,-0.085938,0.054688,-0.017578,-0.001953,-0.019531
488541.0,-1.632812,-7.746094,5.632812,0.078125,-0.050781,0.0625,-0.025391,-0.007812,-0.019531
488558.0,-1.59375,-7.78125,5.597656,0.117188,-0.085938,0.0625,-0.015625,-0.003906,-0.019531
488581.0,-1.632812,-7.746094,5.632812,0.070312,-0.042969,0.070312,-0.005859,0.007812,-0.017578
488598.0,-1.613281,-7.695312,5.601562,0.007812,0.042969,0.039062,0.003906,0.011719,-0.017578
488653.0,-1.613281,-7.65625,5.640625,0.0625,0.082031,0.046875,-0.005859,0.023438,-0.003906
488669.0,-1.613281,-7.65625,5.679688,0.0625,0.121094,0.085938,-0.009766,0.023438,0.003906
488692.0,-1.578125,-7.65625,5.640625,0.0625,0.113281,0.046875,-0.015625,0.023438,0.003906
488709.0,-1.539062,-7.625,5.601562,0.0625,0.113281,0.046875,-0.011719,0.011719,0.009766
488731.0,-1.613281,-7.628906,5.679688,0.027344,0.132812,0.085938,-0.011719,0.013672,0.009766
488741.0,-1.613281,-7.628906,5.679688,0.027344,0.125,0.085938,-0.03125,0.007812,0.013672
488773.0,-1.578125,-7.695312,5.714844,0.0625,0.050781,0.121094,-0.033203,-0.003906,0.009766
488789.0,-1.578125,-7.699219,5.679688,0.054688,0.050781,0.09375,-0.007812,-0.005859,0.009766
488813.0,-1.613281,-7.660156,5.714844,0.019531,0.082031,0.113281,0.009766,-0.007812,0.005859
488829.0,-1.652344,-7.65625,5.679688,0.019531,0.074219,0.070312,0.011719,-0.011719,0.001953
488852.0,-1.613281,-7.65625,5.640625,0.011719,0.066406,0.023438,-0.011719,-0.011719,-0.007812
488869.0,-1.578125,-7.628906,5.679688,0.011719,0.058594,0.0625,-0.011719,-0.015625,-0.005859
488892.0,-1.578125,-7.65625,5.679688,0.039062,0.058594,0.0625,-0.011719,-0.013672,-0.007812
488909.0,-1.613281,-7.625,5.714844,0.039062,0.085938,0.054688,0.009766,-0.009766,-0.007812
488932.0,-1.613281,-7.589844,5.679688,-0.003906,0.117188,0.039062,0.003906,-0.009766,-0.007812
488949.0,-1.613281,-7.628906,5.679688,-0.003906,0.070312,0.0,-0.001953,-0.019531,-0.009766
488964.0,-1.613281,-7.589844,5.679688,-0.011719,0.070312,0.0,-0.003906,-0.021484,-0.009766
488980.0,-1.613281,-7.625,5.601562,-0.011719,0.070312,0.0,0.003906,-0.021484,-0.015625
489012.0,-1.613281,-7.589844,5.640625,-0.019531,0.085938,-0.007812,0.007812,-0.015625,-0.015625
489029.0,-1.578125,-7.585938,5.601562,-0.027344,0.125,-0.046875,-0.001953,-0.015625,-0.005859
489050.0,-1.613281,-7.585938,5.601562,0.015625,0.039062,-0.007812,0.001953,-0.009766,-0.007812
489069.0,-1.578125,-7.628906,5.640625,-0.027344,0.070312,-0.046875,0.003906,-0.001953,-0.011719
489089.0,-1.613281,-7.65625,5.640625,-0.027344,0.03125,-0.046875,0.013672,0.003906,-0.011719
489109.0,-1.613281,-7.65625,5.679688,0.007812,-0.011719,0.03125,0.035156,0.007812,-0.011719
489123.0,-1.613281,-7.65625,5.679688,-0.035156,-0.019531,0.023438,0.044922,0.009766,-0.015625
489139.0,-1.613281,-7.65625,5.640625,-0.027344,0.007812,-0.015625,0.042969,0.007812,-0.023438
489163.0,-1.652344,-7.65625,5.640625,-0.066406,-0.035156,-0.023438,0.035156,0.005859,-0.021484
489179.0,-1.613281,-7.628906,5.640625,-0.027344,-0.035156,-0.03125,0.035156,0.007812,-0.019531
489219.0,-1.539062,-7.585938,5.601562,0.007812,-0.007812,-0.039062,0.037109,0.005859,-0.019531
489242.0,-1.539062,-7.550781,5.601562,0.039062,0.0625,-0.078125,0.035156,0.009766,-0.021484
489282.0,-1.539062,-7.589844,5.679688,0.039062,0.015625,0.0,0.015625,0.023438,-0.013672
489299.0,-1.578125,-7.589844,5.679688,0.039062,0.015625,0.007812,0.011719,0.033203,-0.015625
489322.0,-1.578125,-7.628906,5.640625,0.0,-0.023438,-0.03125,0.017578,0.03125,-0.015625
489339.0,-1.539062,-7.699219,5.679688,-0.007812,-0.023438,0.0,0.033203,0.03125,-0.013672
489362.0,-1.578125,-7.660156,5.714844,0.0,-0.066406,0.035156,0.041016,0.027344,-0.009766
489379.0,-1.539062,-7.660156,5.753906,0.0,-0.066406,0.066406,0.037109,0.023438,-0.015625
489400.0,-1.578125,-7.660156,5.714844,0.0,-0.074219,0.066406,0.037109,0.019531,-0.017578
489433.0,-1.578125,-7.660156,5.753906,-0.007812,-0.066406,0.050781,0.03125,0.013672,-0.023438
489449.0,-1.539062,-7.660156,5.714844,0.03125,-0.105469,-0.023438,0.042969,0.011719,-0.033203
489474.0,-1.539062,-7.625,5.714844,0.023438,-0.03125,-0.003906,0.056641,0.009766,-0.027344
489489.0,-1.5,-7.660156,5.714844,0.015625,-0.03125,-0.011719,0.0625,0.013672,-0.023438
489513.0,-1.5,-7.625,5.753906,0.054688,-0.03125,0.019531,0.046875,0.015625,-0.023438
489530.0,-1.5,-7.625,5.714844,0.054688,-0.03125,0.011719,0.023438,0.011719,-0.025391
489553.0,-1.539062,-7.660156,5.753906,0.0,-0.066406,0.011719,0.011719,0.013672,-0.025391
489569.0,-1.5,-7.660156,5.714844,0.0,-0.058594,-0.027344,-0.003906,0.009766,-0.041016
489594.0,-1.5,-7.660156,5.753906,0.023438,-0.050781,0.011719,-0.003906,0.013672,-0.054688
489610.0,-1.5,-7.660156,5.714844,-0.015625,-0.050781,-0.027344,0.009766,0.027344,-0.068359
489634.0,-1.5,-7.65625,5.679688,0.015625,-0.042969,-0.0625,0.019531,0.033203,-0.076172
489654.0,-1.539062,-7.625,5.714844,0.007812,-0.007812,-0.035156,0.025391,0.046875,-0.087891
489682.0,-1.539062,-7.625,5.714844,-0.046875,0.0,-0.035156,0.029297,0.056641,-0.09375
489713.0,-1.539062,-7.625,5.753906,-0.054688,0.0,0.003906,0.035156,0.064453,-0.097656
489730.0,-1.539062,-7.625,5.753906,-0.0625,0.0,0.003906,0.035156,0.0625,-0.095703
489744.0,-1.578125,-7.625,5.753906,-0.101562,0.039062,-0.035156,0.035156,0.070312,-0.095703
489760.0,-1.578125,-7.625,5.714844,-0.128906,0.039062,-0.042969,0.019531,0.058594,-0.099609
489783.0,-1.578125,-7.550781,5.714844,-0.109375,0.070312,-0.035156,0.015625,0.056641,-0.099609
489800.0,-1.578125,-7.589844,5.679688,-0.109375,0.078125,-0.035156,0.009766,0.060547,-0.101562
489823.0,-1.539062,-7.546875,5.679688,-0.078125,0.078125,-0.070312,0.007812,0.060547,-0.105469
489840.0,-1.5,-7.511719,5.679688,-0.070312,0.117188,-0.0625,0.027344,0.074219,-0.099609
489862.0,-1.5,-7.550781,5.714844,-0.039062,0.070312,-0.027344,0.03125,0.080078,-0.097656
489880.0,-1.5,-7.507812,5.714844,-0.039062,0.109375,-0.0625,0.039062,0.103516,-0.087891
489902.0,-1.460938,-7.507812,5.753906,0.007812,0.09375,0.011719,0.044922,0.109375,-0.083984
489919.0,-1.5,-7.507812,5.714844,0.015625,0.125,0.011719,0.042969,0.113281,-0.070312
489959.0,-1.460938,-7.585938,5.792969,0.015625,0.03125,0.011719,0.037109,0.109375,-0.042969
489982.0,-1.460938,-7.625,5.832031,0.023438,-0.054688,0.082031,0.042969,0.109375,-0.039062
489999.0,-1.421875,-7.628906,5.832031,0.070312,-0.0625,0.082031,0.0625,0.091797,-0.025391
490023.0,-1.421875,-7.628906,5.871094,0.078125,-0.070312,0.105469,0.060547,0.076172,-0.03125
490040.0,-1.386719,-7.699219,5.871094,0.078125,-0.105469,0.097656,0.064453,0.060547,-0.044922
490063.0,-1.347656,-7.660156,5.90625,0.144531,-0.113281,0.109375,0.082031,0.058594,-0.064453
490079.0,-1.347656,-7.625,5.90625,0.136719,-0.113281,0.101562,0.078125,0.046875,-0.085938
490104.0,-1.308594,-7.625,5.871094,0.152344,-0.078125,0.035156,0.068359,0.044922,-0.107422
490120.0,-1.308594,-7.589844,5.90625,0.144531,-0.078125,0.070312,0.058594,0.042969,-0.134766
490141.0,-1.347656,-7.546875,5.871094,0.082031,0.0,0.054688,0.060547,0.050781,-0.154297
490160.0,-1.386719,-7.625,5.90625,0.050781,-0.03125,0.003906,0.089844,0.060547,-0.173828
490190.0,-1.386719,-7.589844,5.871094,-0.039062,-0.070312,0.03125,0.167969,0.082031,-0.197266
490214.0,-1.386719,-7.472656,5.871094,-0.050781,0.054688,-0.058594,0.191406,0.089844,-0.203125
490229.0,-1.386719,-7.429688,5.871094,-0.066406,0.046875,-0.113281,0.251953,0.105469,-0.193359
490254.0,-1.386719,-7.355469,5.871094,-0.089844,0.121094,-0.121094,0.263672,0.109375,-0.179688
490270.0,-1.386719,-7.316406,5.871094,-0.089844,0.152344,-0.144531,0.257812,0.115234,-0.160156
490294.0,-1.386719,-7.242188,5.90625,-0.105469,0.1875,-0.164062,0.228516,0.113281,-0.134766
490310.0,-1.386719,-7.207031,5.945312,-0.105469,0.210938,-0.171875,0.175781,0.105469,-0.103516
490332.0,-1.386719,-7.207031,5.945312,-0.113281,0.1875,-0.164062,0.105469,0.097656,-0.072266
490373.0,-1.421875,-7.355469,5.945312,-0.132812,0.027344,-0.179688,0.023438,0.087891,-0.011719
490390.0,-1.386719,-7.351562,5.984375,-0.097656,0.027344,-0.179688,0.033203,0.087891,0.011719
490413.0,-1.386719,-7.3125,5.984375,-0.074219,0.058594,-0.140625,0.046875,0.091797,0.037109
490430.0,-1.386719,-7.351562,5.984375,-0.066406,0.019531,-0.140625,0.017578,0.087891,0.054688
490453.0,-1.347656,-7.394531,5.984375,0.003906,-0.027344,-0.148438,0.0,0.082031,0.072266
490470.0,-1.347656,-7.46875,5.984375,0.011719,-0.066406,-0.140625,-0.011719,0.072266,0.074219
490510.0,-1.347656,-7.394531,5.984375,0.089844,-0.027344,-0.132812,-0.037109,0.064453,0.070312
490530.0,-1.308594,-7.472656,6.023438,0.113281,-0.101562,-0.078125,-0.048828,0.068359,0.066406
490551.0,-1.347656,-7.433594,6.023438,0.089844,-0.101562,-0.070312,-0.052734,0.070312,0.0625
490570.0,-1.308594,-7.46875,6.097656,0.144531,-0.132812,-0.023438,-0.052734,0.072266,0.054688
490590.0,-1.269531,-7.550781,6.0625,0.160156,-0.125,-0.054688,-0.029297,0.072266,0.041016
490604.0,-1.308594,-7.550781,6.0625,0.175781,-0.125,-0.007812,-0.015625,0.068359,0.039062
490620.0,-1.347656,-7.429688,6.0625,0.183594,-0.085938,0.027344,-0.017578,0.060547,0.029297
490644.0,-1.347656,-7.390625,6.0625,0.160156,-0.011719,0.007812,-0.052734,0.052734,0.029297
490660.0,-1.347656,-7.390625,6.0625,0.207031,-0.011719,0.042969,-0.078125,0.035156,0.025391
490684.0,-1.347656,-7.429688,6.097656,0.175781,-0.035156,0.058594,-0.070312,0.021484,0.021484
490700.0,-1.347656,-7.429688,6.097656,-0.003906,0.011719,0.046875,-0.070312,0.007812,0.013672
490724.0,-1.386719,-7.429688,6.0625,-0.035156,-0.011719,0.0625,-0.060547,0.0,0.013672
490740.0,-1.386719,-7.390625,6.097656,-0.035156,-0.003906,0.136719,-0.054688,-0.015625,0.015625
490764.0,-1.460938,-7.355469,6.023438,-0.109375,0.074219,0.03125,-0.072266,-0.023438,0.013672
490780.0,-1.421875,-7.390625,6.0625,-0.070312,0.082031,0.097656,-0.09375,-0.035156,0.013672
490803.0,-1.460938,-7.390625,6.023438,-0.109375,0.050781,0.046875,-0.091797,-0.041016,0.013672
490820.0,-1.460938,-7.394531,6.0625,-0.109375,0.058594,0.085938,-0.074219,-0.054688,0.015625
490844.0,-1.460938,-7.394531,6.0625,-0.09375,0.066406,0.09375,-0.060547,-0.060547,0.019531
490861.0,-1.5,-7.355469,5.984375,-0.140625,0.105469,0.054688,-0.064453,-0.066406,0.021484
490883.0,-1.460938,-7.3125,5.945312,-0.09375,0.144531,-0.023438,-0.072266,-0.070312,0.025391
490900.0,-1.5,-7.390625,5.90625,-0.09375,0.105469,-0.015625,-0.076172,-0.072266,0.035156
490922.0,-1.5,-7.390625,5.90625,-0.125,0.066406,-0.007812,-0.080078,-0.078125,0.041016
490940.0,-1.539062,-7.433594,5.945312,-0.164062,0.027344,0.0,-0.070312,-0.080078,0.041016
490962.0,-1.539062,-7.550781,5.945312,-0.109375,-0.039062,0.007812,-0.044922,-0.074219,0.039062
490980.0,-1.539062,-7.550781,5.945312,-0.148438,-0.078125,0.015625,-0.017578,-0.074219,0.03125
491001.0,-1.539062,-7.46875,5.945312,-0.140625,-0.03125,0.007812,-0.015625,-0.074219,0.029297
491021.0,-1.578125,-7.46875,5.945312,-0.132812,-0.03125,-0.03125,-0.027344,-0.078125,0.025391
491051.0,-1.5,-7.507812,5.871094,-0.125,0.007812,-0.058594,-0.033203,-0.074219,0.015625
491074.0,-1.5,-7.46875,5.832031,-0.078125,0.007812,-0.089844,-0.017578,-0.068359,0.017578
491091.0,-1.539062,-7.433594,5.792969,-0.117188,0.058594,-0.128906,-0.025391,-0.0625,0.011719
491114.0,-1.5,-7.390625,5.679688,-0.070312,0.089844,-0.234375,-0.021484,-0.048828,0.013672
491131.0,-1.5,-7.394531,5.714844,-0.070312,0.089844,-0.226562,-0.033203,-0.033203,0.015625
491154.0,-1.5,-7.316406,5.679688,-0.0625,0.167969,-0.203125,-0.042969,-0.011719,0.021484
491171.0,-1.460938,-7.273438,5.640625,-0.015625,0.167969,-0.234375,-0.064453,0.001953,0.027344
491194.0,-1.421875,-7.246094,5.601562,0.039062,0.234375,-0.234375,-0.080078,0.033203,0.039062
491211.0,-1.421875,-7.273438,5.601562,0.046875,0.234375,-0.21875,-0.087891,0.068359,0.060547
491234.0,-1.460938,-7.128906,5.449219,0.039062,0.351562,-0.324219,-0.140625,0.107422,0.083984
491251.0,-1.460938,-6.894531,5.257812,0.046875,0.496094,-0.378906,-0.261719,0.169922,0.113281
491274.0,-1.386719,-6.863281,4.757812,0.183594,0.648438,-0.921875,-0.349609,0.226562,0.160156
491291.0,-1.386719,-6.667969,3.992188,0.253906,0.75,-1.234375,-0.373047,0.341797,0.230469
491306.0,-1.460938,-6.546875,3.722656,0.285156,1.082031,-2.0,-0.361328,0.386719,0.283203
491332.0,-1.195312,-6.285156,3.148438,0.578125,1.257812,-2.234375,-0.138672,0.648438,0.472656
491351.0,-1.421875,-5.742188,2.726562,0.566406,1.601562,-2.617188,0.070312,0.910156,0.646484
491371.0,-1.769531,-5.359375,2.421875,0.578125,1.808594,-2.703125,0.072266,1.181641,0.839844
491390.0,-2.496094,-5.636719,2.421875,0.132812,2.28125,-3.066406,-0.042969,1.416016,1.019531
491425.0,-3.761719,-6.785156,3.496094,-1.25,0.425781,-1.5,0.101562,1.748047,1.185547
491443.0,-4.640625,-6.929688,3.761719,-1.445312,0.378906,-1.378906,0.261719,1.912109,1.226562
491465.0,-6.019531,-7.8125,4.683594,-2.285156,-0.675781,-0.308594,0.304688,1.9375,1.179688
491481.0,-6.710938,-7.933594,5.488281,-2.441406,-0.96875,0.359375,0.351562,1.96875,1.128906
491505.0,-7.441406,-7.433594,5.066406,-2.992188,-0.558594,0.324219,0.349609,1.994141,1.027344
491522.0,-7.515625,-7.628906,5.101562,-2.914062,-0.804688,0.421875,0.298828,1.896484,0.867188
491561.0,-7.132812,-7.433594,5.101562,-2.121094,-1.007812,0.773438,0.728516,1.777344,0.646484
491584.0,-6.441406,-6.707031,4.910156,-0.917969,-0.328125,0.644531,1.003906,1.720703,0.550781
491600.0,-6.171875,-6.128906,4.71875,-0.65625,-0.167969,0.59375,1.146484,1.714844,0.513672
491625.0,-5.949219,-5.324219,4.335938,0.0,0.738281,0.195312,1.068359,1.720703,0.542969
491643.0,-5.90625,-5.210938,4.222656,0.140625,0.773438,0.128906,0.900391,1.732422,0.626953
491671.0,-5.867188,-4.328125,3.878906,0.507812,1.246094,0.0,0.505859,1.808594,0.783203
491696.0,-6.332031,-4.136719,3.496094,0.398438,1.417969,-0.121094,0.185547,1.902344,0.900391
491733.0,-7.625,-5.019531,3.304688,-0.417969,0.222656,0.21875,0.078125,1.996094,1.097656
491772.0,-9.050781,-4.519531,3.378906,-1.359375,0.324219,0.863281,0.462891,2.191406,1.216797
491785.0,-9.195312,-4.484375,3.417969,-1.402344,0.257812,1.050781,0.482422,2.246094,1.193359
491801.0,-9.695312,-4.484375,3.457031,-1.523438,0.1875,1.167969,0.423828,2.207031,1.138672
491814.0,-10.003906,-4.558594,3.417969,-2.171875,-0.167969,1.527344,0.378906,2.154297,1.087891
491853.0,-10.304688,-4.636719,3.304688,-1.917969,-0.542969,2.023438,0.179688,1.861328,0.835938
491895.0,-9.777344,-5.402344,3.113281,-1.234375,-1.503906,2.207031,0.78125,0.9375,0.332031
491911.0,-9.660156,-5.210938,2.996094,-1.210938,-1.496094,2.128906,1.119141,0.625,0.158203
491934.0,-9.390625,-4.636719,2.726562,-0.796875,-0.832031,1.867188,1.189453,0.345703,0.029297
491965.0,-8.855469,-4.292969,2.460938,-0.253906,-0.511719,1.523438,1.0,0.089844,-0.052734
491981.0,-8.589844,-4.214844,2.382812,-0.101562,-0.433594,1.445312,0.566406,-0.169922,-0.095703
492005.0,-8.351562,-4.292969,2.230469,0.230469,-0.503906,1.136719,0.457031,-0.222656,-0.105469
492022.0,-8.242188,-4.519531,2.117188,0.257812,-0.648438,1.027344,0.275391,-0.316406,-0.107422
492054.0,-8.246094,-4.636719,1.925781,0.320312,-0.816406,0.636719,0.279297,-0.339844,-0.101562
492085.0,-8.355469,-4.40625,1.847656,0.175781,-0.570312,0.441406,0.214844,-0.339844,-0.101562
492102.0,-8.429688,-4.253906,1.808594,0.136719,-0.449219,0.394531,0.007812,-0.367188,-0.099609
492125.0,-8.507812,-4.519531,1.769531,-0.011719,-0.644531,0.222656,-0.058594,-0.380859,-0.111328
492142.0,-8.550781,-4.519531,1.769531,-0.054688,-0.675781,0.191406,-0.197266,-0.390625,-0.109375
492165.0,-8.585938,-4.445312,1.730469,-0.117188,-0.515625,0.074219,-0.255859,-0.392578,-0.103516
492181.0,-8.511719,-4.367188,1.730469,-0.09375,-0.460938,0.050781,-0.425781,-0.423828,-0.076172
492206.0,-8.46875,-4.136719,1.730469,-0.042969,-0.152344,-0.011719,-0.558594,-0.433594,-0.044922
492221.0,-8.511719,-3.90625,1.730469,-0.089844,-0.023438,0.019531,-0.792969,-0.458984,-0.001953
492261.0,-8.511719,-3.296875,1.847656,-0.074219,0.652344,0.082031,-1.587891,-0.560547,0.136719
492274.0,-8.511719,-3.179688,1.847656,-0.121094,0.921875,0.113281,-1.837891,-0.595703,0.179688
492312.0,-8.628906,-3.871094,1.578125,-0.15625,0.722656,0.058594,-2.351562,-0.697266,0.242188
492325.0,-8.589844,-4.0625,1.578125,-0.203125,-0.105469,0.023438,-2.287109,-0.707031,0.236328
492341.0,-8.589844,-4.445312,1.617188,-0.203125,-0.242188,0.09375,-2.025391,-0.714844,0.224609
492354.0,-8.589844,-4.445312,1.617188,-0.195312,-0.210938,0.132812,-1.871094,-0.712891,0.212891
492381.0,-8.703125,-4.328125,1.578125,-0.242188,-0.117188,0.125,-1.498047,-0.699219,0.166016
492405.0,-8.667969,-4.136719,1.578125,-0.28125,0.136719,0.132812,-1.369141,-0.691406,0.126953
492421.0,-8.773438,-3.871094,1.65625,-0.363281,0.296875,0.171875,-1.365234,-0.697266,0.115234
492445.0,-8.8125,-3.640625,1.617188,-0.457031,0.679688,0.171875,-1.466797,-0.708984,0.107422
492462.0,-8.8125,-3.640625,1.578125,-0.457031,0.734375,0.132812,-1.587891,-0.720703,0.107422
492483.0,-8.851562,-3.753906,1.347656,-0.511719,0.644531,-0.003906,-1.671875,-0.732422,0.105469
492504.0,-8.894531,-3.832031,1.3125,-0.566406,0.550781,-0.09375,-1.675781,-0.769531,0.101562
492542.0,-8.929688,-4.328125,0.738281,-0.695312,0.191406,-0.644531,-1.462891,-0.767578,0.046875
492556.0,-8.894531,-4.40625,0.699219,-0.480469,-0.007812,-0.753906,-1.337891,-0.759766,0.027344
492572.0,-8.664062,-4.828125,0.316406,-0.449219,-0.175781,-0.914062,-0.964844,-0.699219,-0.029297
492596.0,-8.472656,-5.058594,0.277344,-0.214844,-0.511719,-1.160156,-0.482422,-0.572266,-0.099609
492611.0,-8.390625,-4.980469,0.316406,-0.191406,-0.457031,-1.117188,0.050781,-0.410156,-0.154297
492636.0,-8.324219,-4.675781,0.316406,-0.109375,-0.074219,-1.261719,0.517578,-0.248047,-0.183594
492651.0,-8.351562,-4.253906,0.160156,-0.117188,0.164062,-1.386719,0.738281,-0.121094,-0.185547
492676.0,-8.324219,-3.714844,0.160156,-0.148438,0.902344,-1.582031,0.648438,-0.044922,-0.164062
492692.0,-8.355469,-3.714844,0.199219,-0.191406,0.9375,-1.613281,0.390625,0.029297,-0.117188
492715.0,-8.324219,-4.097656,0.238281,-0.164062,0.527344,-1.558594,0.185547,0.126953,-0.064453
492732.0,-8.246094,-4.292969,0.316406,-0.085938,0.449219,-1.519531,0.140625,0.244141,-0.011719
492755.0,-8.207031,-4.253906,0.390625,-0.03125,0.363281,-1.359375,0.1875,0.357422,0.041016
492772.0,-8.246094,-4.328125,0.542969,-0.015625,0.308594,-1.21875,0.273438,0.455078,0.089844
492795.0,-8.355469,-4.328125,0.738281,-0.128906,0.234375,-0.910156,0.375,0.535156,0.132812
492812.0,-8.394531,-4.253906,0.8125,-0.113281,0.246094,-0.871094,0.445312,0.597656,0.169922
492835.0,-8.585938,-4.097656,0.964844,-0.289062,0.386719,-0.550781,0.451172,0.630859,0.193359
492852.0,-8.625,-4.097656,1.042969,-0.304688,0.363281,-0.480469,0.421875,0.646484,0.208984
492872.0,-8.734375,-4.136719,1.234375,-0.34375,0.308594,-0.25,0.40625,0.648438,0.212891
492892.0,-8.773438,-4.097656,1.273438,-0.339844,0.269531,-0.09375,0.40625,0.630859,0.205078
492912.0,-8.777344,-4.097656,1.386719,-0.339844,0.222656,0.089844,0.416016,0.601562,0.189453
492932.0,-8.777344,-4.097656,1.386719,-0.347656,0.175781,0.238281,0.425781,0.554688,0.169922
492947.0,-8.851562,-4.136719,1.386719,-0.355469,0.097656,0.261719,0.429688,0.53125,0.160156
492962.0,-8.851562,-4.097656,1.503906,-0.347656,0.082031,0.363281,0.429688,0.484375,0.142578
492985.0,-8.816406,-4.136719,1.617188,-0.269531,0.027344,0.59375,0.435547,0.464844,0.132812
493002.0,-8.773438,-4.136719,1.617188,-0.222656,0.011719,0.648438,0.46875,0.388672,0.109375
493025.0,-8.734375,-4.023438,1.695312,-0.160156,0.085938,0.726562,0.476562,0.363281,0.109375
493042.0,-8.707031,-3.945312,1.65625,-0.109375,0.109375,0.742188,0.427734,0.273438,0.103516
493066.0,-8.667969,-3.945312,1.65625,-0.054688,0.109375,0.726562,0.347656,0.210938,0.113281
493082.0,-8.664062,-3.984375,1.65625,-0.046875,0.09375,0.726562,0.257812,0.15625,0.121094
493106.0,-8.585938,-4.023438,1.617188,0.054688,-0.023438,0.703125,0.173828,0.105469,0.132812
493122.0,-8.589844,-4.0625,1.617188,0.0625,-0.078125,0.703125,0.113281,0.0625,0.134766
493145.0,-8.546875,-4.136719,1.617188,0.125,-0.191406,0.703125,0.083984,0.025391,0.130859
493162.0,-8.589844,-4.214844,1.539062,0.09375,-0.238281,0.703125,0.072266,-0.013672,0.119141
493186.0,-8.667969,-4.292969,1.425781,0.023438,-0.386719,0.496094,0.074219,-0.046875,0.095703
493202.0,-8.628906,-4.328125,1.464844,0.023438,-0.429688,0.527344,0.074219,-0.082031,0.064453
493225.0,-8.667969,-4.328125,1.386719,0.03125,-0.445312,0.417969,0.068359,-0.117188,0.039062
493242.0,-8.703125,-4.292969,1.347656,-0.007812,-0.453125,0.363281,0.035156,-0.15625,0.007812
493262.0,-8.734375,-4.253906,1.234375,-0.042969,-0.378906,0.257812,-0.041016,-0.214844,-0.021484
493282.0,-8.734375,-4.292969,1.234375,-0.042969,-0.417969,0.1875,-0.105469,-0.257812,-0.044922
493302.0,-8.703125,-4.292969,1.121094,-0.050781,-0.402344,0.070312,-0.166016,-0.292969,-0.070312
493322.0,-8.707031,-4.328125,1.121094,-0.03125,-0.386719,-0.003906,-0.207031,-0.316406,-0.099609
493342.0,-8.707031,-4.328125,1.042969,-0.046875,-0.398438,-0.082031,-0.226562,-0.328125,-0.126953
493362.0,-8.667969,-4.328125,1.042969,-0.0625,-0.375,-0.160156,-0.228516,-0.322266,-0.150391
493382.0,-8.625,-4.253906,1.042969,0.0,-0.308594,-0.199219,-0.224609,-0.310547,-0.166016
493402.0,-8.625,-4.214844,1.042969,-0.023438,-0.191406,-0.238281,-0.230469,-0.296875,-0.177734
493422.0,-8.667969,-4.214844,0.929688,-0.078125,-0.113281,-0.308594,-0.236328,-0.28125,-0.189453
493442.0,-8.667969,-4.253906,0.929688,-0.0625,-0.113281,-0.371094,-0.236328,-0.255859,-0.199219
493462.0,-8.628906,-4.175781,1.003906,-0.085938,-0.027344,-0.363281,-0.212891,-0.222656,-0.205078
493482.0,-8.585938,-4.214844,1.042969,-0.109375,0.011719,-0.378906,-0.146484,-0.177734,-0.212891
493502.0,-8.585938,-4.136719,1.003906,-0.09375,0.050781,-0.324219,-0.074219,-0.140625,-0.214844
493522.0,-8.546875,-4.023438,1.042969,-0.15625,0.167969,-0.378906,-0.044922,-0.119141,-0.212891
493542.0,-8.628906,-3.984375,1.042969,-0.140625,0.28125,-0.394531,-0.035156,-0.095703,-0.207031
493553.0,-8.628906,-3.984375,1.082031,-0.1875,0.335938,-0.402344,-0.021484,-0.089844,-0.197266
493576.0,-8.703125,-3.945312,1.082031,-0.289062,0.429688,-0.371094,-0.005859,-0.074219,-0.185547
493592.0,-8.703125,-3.945312,1.121094,-0.296875,0.484375,-0.378906,-0.017578,-0.058594,-0.169922
493612.0,-8.625,-3.945312,1.121094,-0.304688,0.460938,-0.339844,-0.003906,-0.041016,-0.150391
493633.0,-8.628906,-3.90625,1.121094,-0.242188,0.5,-0.355469,0.033203,-0.025391,-0.134766
493652.0,-8.589844,-3.90625,1.121094,-0.179688,0.5625,-0.363281,0.066406,-0.007812,-0.111328
493687.0,-8.550781,-3.871094,1.121094,-0.195312,0.660156,-0.371094,0.087891,0.023438,-0.066406
493702.0,-8.507812,-3.871094,1.121094,-0.160156,0.621094,-0.371094,0.089844,0.048828,-0.029297
493726.0,-8.507812,-3.832031,1.195312,-0.160156,0.660156,-0.296875,0.091797,0.060547,-0.007812
493743.0,-8.511719,-3.871094,1.15625,-0.160156,0.660156,-0.296875,0.107422,0.103516,0.058594
493766.0,-8.511719,-3.871094,1.15625,-0.144531,0.589844,-0.3125,0.103516,0.126953,0.099609
493782.0,-8.507812,-3.871094,1.195312,-0.097656,0.582031,-0.265625,0.095703,0.146484,0.146484
493807.0,-8.546875,-3.984375,1.195312,-0.140625,0.429688,-0.242188,0.091797,0.162109,0.179688
493822.0,-8.550781,-4.023438,1.234375,-0.097656,0.40625,-0.226562,0.089844,0.177734,0.214844
493846.0,-8.550781,-4.0625,1.195312,-0.09375,0.265625,-0.195312,0.091797,0.191406,0.224609
493862.0,-8.546875,-4.175781,1.195312,-0.117188,0.167969,-0.179688,0.115234,0.222656,0.240234
493886.0,-8.625,-4.214844,1.195312,-0.117188,0.019531,-0.132812,0.128906,0.234375,0.242188
493903.0,-8.667969,-4.253906,1.15625,-0.101562,-0.003906,-0.117188,0.171875,0.251953,0.228516
493927.0,-8.707031,-4.292969,1.15625,-0.140625,-0.144531,-0.109375,0.189453,0.251953,0.207031
493942.0,-8.703125,-4.328125,1.15625,-0.125,-0.203125,-0.0625,0.220703,0.255859,0.167969
493966.0,-8.707031,-4.40625,1.195312,-0.09375,-0.320312,-0.015625,0.257812,0.248047,0.123047
493982.0,-8.738281,-4.40625,1.15625,-0.121094,-0.296875,-0.007812,0.302734,0.240234,0.068359
494006.0,-8.707031,-4.40625,1.195312,-0.070312,-0.367188,0.023438,0.322266,0.238281,0.041016
494023.0,-8.707031,-4.328125,1.195312,-0.03125,-0.328125,0.03125,0.396484,0.21875,-0.041016
494043.0,-8.707031,-4.292969,1.234375,-0.0625,-0.296875,0.070312,0.433594,0.208984,-0.085938
494062.0,-8.707031,-4.253906,1.234375,-0.105469,-0.253906,0.070312,0.447266,0.191406,-0.123047
494083.0,-8.707031,-4.214844,1.234375,-0.070312,-0.167969,0.078125,0.439453,0.179688,-0.150391
494103.0,-8.707031,-4.136719,1.234375,-0.078125,-0.113281,0.109375,0.4375,0.164062,-0.169922
494118.0,-8.703125,-4.136719,1.3125,-0.085938,-0.019531,0.140625,0.4375,0.158203,-0.181641
494133.0,-8.703125,-4.0625,1.3125,-0.09375,-0.011719,0.140625,0.441406,0.142578,-0.203125
494157.0,-8.703125,-3.945312,1.3125,-0.109375,0.179688,0.117188,0.431641,0.121094,-0.21875
494173.0,-8.703125,-3.945312,1.3125,-0.125,0.195312,0.109375,0.427734,0.105469,-0.226562
494197.0,-8.703125,-3.832031,1.347656,-0.140625,0.347656,0.121094,0.412109,0.087891,-0.232422
494213.0,-8.707031,-3.945312,1.273438,-0.15625,0.289062,0.046875,0.419922,0.080078,-0.226562
494237.0,-8.738281,-3.753906,1.3125,-0.214844,0.480469,0.046875,0.375,0.072266,-0.216797
494253.0,-8.738281,-3.714844,1.3125,-0.261719,0.496094,0.039062,0.308594,0.070312,-0.199219
494277.0,-8.667969,-3.640625,1.3125,-0.164062,0.648438,0.015625,0.251953,0.072266,-0.179688
494293.0,-8.589844,-3.640625,1.3125,-0.132812,0.664062,-0.023438,0.1875,0.072266,-0.158203
494316.0,-8.585938,-3.753906,1.195312,-0.109375,0.574219,-0.109375,0.138672,0.0625,-0.142578
494333.0,-8.667969,-3.832031,1.15625,-0.109375,0.550781,-0.101562,0.142578,0.068359,-0.136719
494356.0,-8.738281,-4.0625,1.003906,-0.277344,0.3125,-0.300781,0.21875,0.095703,-0.164062
494373.0,-8.8125,-4.214844,0.964844,-0.324219,0.246094,-0.339844,0.396484,0.146484,-0.205078
494396.0,-8.96875,-4.40625,0.699219,-0.539062,0.015625,-0.621094,0.65625,0.205078,-0.263672
494414.0,-9.046875,-4.484375,0.507812,-0.585938,-0.015625,-0.753906,0.912109,0.257812,-0.326172
494428.0,-9.050781,-4.484375,0.390625,-0.648438,0.015625,-0.976562,1.019531,0.283203,-0.353516
494443.0,-8.929688,-4.484375,0.277344,-0.617188,-0.007812,-1.0,1.232422,0.347656,-0.384766
494466.0,-8.738281,-4.519531,0.046875,-0.386719,-0.003906,-1.421875,1.328125,0.390625,-0.396484
494496.0,-8.46875,-4.292969,0.085938,-0.144531,0.253906,-1.445312,1.541016,0.595703,-0.404297
494514.0,-8.203125,-4.292969,0.238281,0.046875,0.261719,-1.429688,1.578125,0.730469,-0.376953
494534.0,-8.089844,-4.214844,0.390625,0.117188,0.269531,-1.332031,1.626953,0.867188,-0.330078
494553.0,-7.96875,-4.175781,0.738281,0.261719,0.394531,-0.917969,1.673828,1.003906,-0.259766
494573.0,-8.046875,-4.136719,0.773438,0.308594,0.378906,-0.78125,1.669922,1.107422,-0.164062
494588.0,-8.085938,-4.0625,0.8125,0.207031,0.625,-0.625,1.638672,1.146484,-0.115234
494604.0,-8.164062,-3.753906,1.121094,0.222656,0.644531,-0.449219,1.505859,1.177734,-0.011719
494616.0,-8.167969,-3.679688,1.195312,0.21875,0.796875,-0.234375,1.421875,1.181641,0.041016
494654.0,-8.546875,-3.21875,1.617188,-0.019531,1.210938,0.28125,0.865234,1.09375,0.273438
494667.0,-8.628906,-3.21875,1.65625,-0.195312,0.988281,0.515625,0.695312,1.054688,0.339844
494683.0,-8.777344,-3.5625,1.847656,-0.207031,0.832031,0.699219,0.441406,0.964844,0.443359
494707.0,-8.8125,-3.90625,1.769531,-0.191406,0.234375,0.855469,0.333984,0.867188,0.509766
494723.0,-8.851562,-4.023438,1.808594,-0.207031,0.109375,0.949219,0.337891,0.767578,0.521484
494747.0,-8.851562,-4.023438,1.925781,-0.128906,-0.070312,1.214844,0.390625,0.660156,0.501953
494763.0,-8.894531,-3.984375,1.960938,-0.105469,-0.078125,1.296875,0.427734,0.554688,0.457031
494776.0,-8.851562,-4.023438,2.0,-0.058594,-0.203125,1.398438,0.439453,0.501953,0.425781
494827.0,-8.734375,-4.445312,1.769531,0.128906,-0.789062,1.246094,0.666016,0.310547,0.214844
494844.0,-8.707031,-4.445312,1.769531,0.097656,-0.773438,1.285156,0.789062,0.283203,0.144531
494858.0,-8.550781,-4.445312,1.695312,0.378906,-0.882812,1.085938,0.851562,0.265625,0.109375
494913.0,-8.546875,-4.902344,1.082031,0.351562,-1.273438,0.546875,1.003906,0.136719,0.003906
494938.0,-8.773438,-4.789062,0.851562,0.128906,-1.25,0.164062,0.888672,0.041016,-0.011719
494953.0,-8.816406,-4.636719,0.773438,0.089844,-1.136719,0.054688,0.578125,-0.060547,-0.033203
494978.0,-8.855469,-4.636719,0.773438,0.042969,-1.097656,-0.015625,0.167969,-0.128906,-0.078125
494994.0,-8.734375,-4.675781,1.003906,0.074219,-1.128906,0.054688,-0.144531,-0.150391,-0.140625
495018.0,-8.707031,-4.710938,1.121094,0.164062,-1.117188,0.292969,-0.263672,-0.126953,-0.21875
495034.0,-8.550781,-4.558594,1.273438,0.273438,-1.011719,0.367188,-0.236328,-0.09375,-0.306641
495056.0,-8.625,-4.445312,1.3125,0.203125,-0.726562,0.484375,-0.1875,-0.080078,-0.347656
495097.0,-8.625,-4.023438,1.425781,0.125,-0.148438,0.566406,0.001953,-0.103516,-0.445312
495113.0,-8.667969,-3.871094,1.425781,0.101562,0.007812,0.597656,-0.044922,-0.154297,-0.439453
495137.0,-8.625,-3.792969,1.503906,0.046875,0.246094,0.597656,-0.107422,-0.214844,-0.408203
495154.0,-8.667969,-3.753906,1.578125,-0.007812,0.324219,0.617188,-0.15625,-0.263672,-0.371094
495177.0,-8.707031,-3.753906,1.65625,-0.101562,0.417969,0.679688,-0.171875,-0.292969,-0.328125
495194.0,-8.667969,-3.679688,1.730469,-0.117188,0.496094,0.65625,-0.164062,-0.302734,-0.28125
495214.0,-8.585938,-3.5625,1.695312,-0.09375,0.554688,0.714844,-0.167969,-0.308594,-0.234375
495234.0,-8.546875,-3.523438,1.695312,-0.015625,0.742188,0.617188,-0.210938,-0.328125,-0.181641
495249.0,-8.550781,-3.523438,1.65625,-0.003906,0.8125,0.539062,-0.232422,-0.330078,-0.154297
495264.0,-8.511719,-3.5625,1.617188,-0.019531,0.828125,0.523438,-0.271484,-0.347656,-0.107422
495287.0,-8.511719,-3.601562,1.578125,-0.042969,0.789062,0.382812,-0.289062,-0.351562,-0.080078
495304.0,-8.546875,-3.640625,1.503906,-0.085938,0.796875,0.359375,-0.318359,-0.367188,-0.017578
495328.0,-8.738281,-3.792969,1.347656,-0.292969,0.613281,0.074219,-0.328125,-0.375,0.025391
495344.0,-8.8125,-3.871094,1.347656,-0.332031,0.582031,0.097656,-0.3125,-0.357422,0.048828
495367.0,-8.773438,-4.023438,1.347656,-0.339844,0.382812,0.011719,-0.25,-0.322266,0.072266
495384.0,-8.738281,-4.023438,1.273438,-0.339844,0.382812,-0.054688,-0.191406,-0.287109,0.085938
495424.0,-8.507812,-4.0625,1.082031,-0.148438,0.320312,-0.339844,-0.195312,-0.238281,0.097656
495448.0,-8.472656,-4.097656,1.15625,-0.035156,0.269531,-0.304688,-0.189453,-0.205078,0.099609
495464.0,-8.433594,-4.097656,1.195312,-0.035156,0.261719,-0.3125,-0.164062,-0.171875,0.101562
495487.0,-8.550781,-4.023438,1.234375,-0.101562,0.320312,-0.257812,-0.173828,-0.138672,0.113281
495504.0,-8.664062,-4.0625,1.3125,-0.179688,0.3125,-0.226562,-0.220703,-0.103516,0.125
495527.0,-8.738281,-4.136719,1.386719,-0.277344,0.167969,-0.105469,-0.251953,-0.066406,0.148438
495544.0,-8.773438,-4.097656,1.425781,-0.308594,0.160156,-0.058594,-0.261719,-0.042969,0.162109
495568.0,-8.734375,-4.0625,1.539062,-0.253906,0.203125,0.070312,-0.271484,-0.039062,0.166016
495585.0,-8.707031,-4.0625,1.578125,-0.210938,0.160156,0.117188,-0.279297,-0.039062,0.160156
495599.0,-8.707031,-4.0625,1.578125,-0.203125,0.171875,0.171875,-0.28125,-0.044922,0.152344
495639.0,-8.707031,-3.984375,1.695312,-0.207031,0.21875,0.308594,-0.277344,-0.091797,0.134766
495685.0,-8.628906,-4.023438,1.730469,-0.117188,0.148438,0.316406,-0.28125,-0.138672,0.123047
495704.0,-8.546875,-3.984375,1.730469,-0.078125,0.140625,0.308594,-0.263672,-0.146484,0.121094
495734.0,-8.46875,-3.984375,1.65625,0.050781,0.117188,0.1875,-0.25,-0.15625,0.117188
495758.0,-8.433594,-3.984375,1.65625,0.136719,0.132812,0.21875,-0.238281,-0.144531,0.113281
495774.0,-8.546875,-4.0625,1.578125,0.058594,0.078125,0.179688,-0.224609,-0.144531,0.109375
495798.0,-8.628906,-4.097656,1.539062,-0.046875,-0.011719,0.09375,-0.224609,-0.138672,0.107422
495814.0,-8.667969,-4.136719,1.578125,-0.085938,-0.050781,0.117188,-0.222656,-0.134766,0.101562
495838.0,-8.703125,-4.136719,1.503906,-0.109375,-0.074219,0.035156,-0.226562,-0.134766,0.09375
495854.0,-8.738281,-4.097656,1.464844,-0.109375,-0.074219,-0.003906,-0.246094,-0.134766,0.076172
495878.0,-8.707031,-4.175781,1.464844,-0.109375,-0.121094,-0.011719,-0.251953,-0.136719,0.0625
495894.0,-8.773438,-4.136719,1.425781,-0.144531,-0.128906,-0.050781,-0.240234,-0.136719,0.048828
495918.0,-8.777344,-4.136719,1.464844,-0.183594,-0.089844,-0.019531,-0.212891,-0.125,0.033203
495935.0,-8.765625,-4.140625,1.457031,-0.136719,-0.074219,-0.136719,-0.175781,-0.117188,0.021484
495975.0,-8.847656,-4.023438,1.417969,-0.195312,0.046875,-0.191406,-0.123047,-0.119141,0.001953
495995.0,-8.804688,-4.023438,1.457031,-0.195312,0.054688,-0.152344,-0.101562,-0.115234,0.0
496016.0,-8.769531,-3.988281,1.417969,-0.148438,0.054688,-0.160156,-0.076172,-0.113281,-0.003906
496029.0,-8.726562,-3.988281,1.34375,0.011719,0.167969,-0.3125,-0.072266,-0.113281,-0.005859
496045.0,-8.574219,-3.910156,1.265625,0.050781,0.167969,-0.304688,-0.085938,-0.119141,-0.005859
496067.0,-8.421875,-3.871094,1.265625,0.234375,0.199219,-0.34375,-0.091797,-0.117188,-0.007812
496077.0,-8.386719,-3.871094,1.265625,0.273438,0.199219,-0.34375,-0.083984,-0.117188,-0.017578
496107.0,-8.386719,-3.949219,1.226562,0.257812,0.121094,-0.375,-0.048828,-0.101562,-0.029297
496124.0,-8.464844,-3.949219,1.226562,0.210938,0.121094,-0.421875,0.039062,-0.066406,-0.033203
496148.0,-8.421875,-3.949219,1.1875,0.203125,0.128906,-0.4375,0.078125,-0.042969,-0.035156
496164.0,-8.34375,-3.871094,1.1875,0.242188,0.160156,-0.40625,0.164062,0.009766,-0.029297
496188.0,-8.425781,-3.796875,1.265625,0.203125,0.265625,-0.375,0.181641,0.017578,-0.019531
496205.0,-8.5,-3.832031,1.34375,0.15625,0.230469,-0.375,0.167969,0.070312,0.019531
496229.0,-8.6875,-3.871094,1.496094,-0.066406,0.175781,-0.144531,0.164062,0.117188,0.056641
496244.0,-8.808594,-3.832031,1.535156,-0.105469,0.207031,-0.128906,0.142578,0.15625,0.085938
496268.0,-8.886719,-3.71875,1.648438,-0.234375,0.289062,0.046875,0.132812,0.167969,0.099609
496285.0,-8.960938,-3.71875,1.6875,-0.265625,0.28125,0.09375,0.056641,0.173828,0.125
496308.0,-9.03125,-3.71875,1.648438,-0.363281,0.242188,0.101562,-0.007812,0.154297,0.150391
496326.0,-9.113281,-3.832031,1.6875,-0.433594,0.1875,0.15625,-0.058594,0.130859,0.160156
496348.0,-9.226562,-3.988281,1.726562,-0.523438,-0.089844,0.234375,-0.033203,0.115234,0.152344
496365.0,-9.152344,-4.0625,1.726562,-0.476562,-0.179688,0.203125,0.066406,0.107422,0.125
496389.0,-8.996094,-4.023438,1.765625,-0.261719,-0.171875,0.304688,0.128906,0.103516,0.105469
496405.0,-8.925781,-3.949219,1.765625,-0.261719,-0.1875,0.304688,0.298828,0.099609,0.039062
496419.0,-8.882812,-3.910156,1.726562,-0.0625,-0.003906,0.226562,0.332031,0.097656,0.017578
496435.0,-8.730469,-3.757812,1.648438,0.011719,0.023438,0.21875,0.341797,0.076172,-0.015625
496474.0,-8.648438,-3.605469,1.726562,0.097656,0.199219,0.203125,0.234375,0.050781,-0.015625
496497.0,-8.726562,-3.679688,1.648438,0.019531,0.117188,0.148438,0.208984,0.048828,-0.001953
496537.0,-8.425781,-3.640625,1.574219,0.335938,0.125,0.074219,0.191406,0.076172,0.037109
496579.0,-8.386719,-3.605469,1.535156,0.390625,0.136719,0.035156,0.173828,0.09375,0.072266
496595.0,-8.460938,-3.605469,1.574219,0.3125,0.121094,0.035156,0.130859,0.107422,0.087891
496619.0,-8.613281,-3.679688,1.609375,0.167969,0.015625,0.140625,0.089844,0.130859,0.101562
496636.0,-8.613281,-3.796875,1.574219,0.136719,-0.03125,0.148438,0.105469,0.158203,0.109375
496658.0,-8.574219,-3.832031,1.609375,0.238281,-0.183594,0.179688,0.150391,0.185547,0.117188
496675.0,-8.542969,-3.871094,1.609375,0.246094,-0.230469,0.1875,0.212891,0.214844,0.125
496698.0,-8.542969,-3.871094,1.609375,0.304688,-0.285156,0.21875,0.251953,0.242188,0.136719
496715.0,-8.464844,-3.832031,1.609375,0.34375,-0.253906,0.234375,0.240234,0.253906,0.142578
496738.0,-8.542969,-3.910156,1.648438,0.335938,-0.386719,0.320312,0.222656,0.263672,0.136719
496755.0,-8.613281,-3.949219,1.648438,0.34375,-0.441406,0.335938,0.216797,0.271484,0.130859
496778.0,-8.769531,-4.101562,1.6875,0.132812,-0.632812,0.421875,0.228516,0.271484,0.107422
496796.0,-8.84375,-4.179688,1.609375,0.101562,-0.726562,0.359375,0.267578,0.275391,0.082031
496810.0,-8.886719,-4.214844,1.609375,-0.007812,-0.816406,0.46875,0.292969,0.275391,0.066406
496826.0,-8.964844,-4.253906,1.648438,-0.074219,-0.824219,0.4375,0.326172,0.279297,0.03125
496849.0,-8.992188,-4.253906,1.609375,-0.066406,-0.832031,0.4375,0.341797,0.28125,0.015625
496866.0,-9.074219,-4.292969,1.609375,-0.097656,-0.839844,0.453125,0.347656,0.259766,-0.035156
496888.0,-9.152344,-4.371094,1.496094,-0.214844,-0.957031,0.371094,0.353516,0.257812,-0.048828
496898.0,-9.1875,-4.445312,1.496094,-0.25,-1.023438,0.378906,0.367188,0.259766,-0.076172
496929.0,-9.230469,-4.484375,1.496094,-0.289062,-1.054688,0.417969,0.441406,0.285156,-0.115234
496946.0,-9.109375,-4.484375,1.417969,-0.25,-1.039062,0.386719,0.525391,0.300781,-0.140625
496969.0,-8.992188,-4.332031,1.304688,-0.074219,-0.863281,0.25,0.566406,0.289062,-0.152344
496986.0,-8.925781,-4.140625,1.265625,-0.039062,-0.738281,0.21875,0.492188,0.253906,-0.164062
496998.0,-8.886719,-4.0625,1.265625,0.039062,-0.5625,0.234375,0.423828,0.232422,-0.166016
497011.0,-8.808594,-3.988281,1.226562,0.183594,-0.472656,0.195312,0.34375,0.207031,-0.167969
497048.0,-8.726562,-4.253906,1.226562,0.167969,-0.683594,0.21875,0.171875,0.154297,-0.15625
497065.0,-8.652344,-4.371094,1.1875,0.199219,-0.714844,0.226562,0.138672,0.183594,-0.142578
497088.0,-8.613281,-4.332031,1.226562,0.269531,-0.722656,0.265625,0.15625,0.208984,-0.146484
497105.0,-8.539062,-4.332031,1.1875,0.308594,-0.699219,0.28125,0.197266,0.228516,-0.1875
497129.0,-8.542969,-4.40625,1.226562,0.328125,-0.726562,0.304688,0.287109,0.238281,-0.242188
497145.0,-8.425781,-4.371094,1.152344,0.359375,-0.742188,0.28125,0.382812,0.232422,-0.308594
497169.0,-8.5,-4.253906,1.113281,0.328125,-0.472656,0.214844,0.427734,0.199219,-0.378906
497185.0,-8.5,-4.214844,1.113281,0.3125,-0.433594,0.253906,0.462891,0.166016,-0.453125
497206.0,-8.542969,-4.214844,1.074219,0.234375,-0.324219,0.207031,0.501953,0.125,-0.519531
497226.0,-8.609375,-4.140625,1.035156,0.160156,-0.195312,0.144531,0.515625,0.091797,-0.580078
497246.0,-8.925781,-4.101562,0.996094,-0.117188,0.007812,0.042969,0.498047,0.033203,-0.636719
497265.0,-9.308594,-4.101562,0.882812,-0.511719,0.085938,-0.070312,0.460938,-0.015625,-0.695312
497285.0,-9.457031,-3.949219,0.804688,-0.878906,0.273438,-0.1875,0.380859,-0.050781,-0.775391
497305.0,-9.378906,-3.910156,0.652344,-0.910156,0.503906,-0.347656,0.314453,-0.097656,-0.863281
497326.0,-9.191406,-3.910156,0.347656,-0.835938,0.652344,-0.738281,0.275391,-0.126953,-0.966797
497339.0,-9.035156,-3.910156,0.308594,-0.804688,0.730469,-0.800781,0.277344,-0.126953,-1.017578
497365.0,-8.726562,-3.988281,0.15625,-0.53125,0.941406,-0.988281,0.453125,-0.083984,-1.142578
497385.0,-8.726562,-4.179688,-0.074219,-0.648438,1.046875,-1.242188,0.742188,-0.039062,-1.208984
497405.0,-9.035156,-4.371094,-0.34375,-0.96875,0.917969,-1.632812,1.089844,0.041016,-1.244141
497417.0,-9.070312,-4.40625,-0.265625,-1.113281,0.957031,-1.757812,1.265625,0.091797,-1.240234
497446.0,-9.1875,-4.371094,-0.417969,-1.460938,1.148438,-1.914062,1.693359,0.273438,-1.111328
497478.0,-8.503906,-3.988281,-1.03125,-0.96875,1.761719,-2.90625,1.59375,0.455078,-0.849609
497519.0,-6.65625,-3.988281,-0.992188,0.769531,1.855469,-2.96875,0.996094,0.849609,-0.443359
497536.0,-6.277344,-4.101562,-0.917969,0.992188,1.789062,-2.953125,0.939453,1.080078,-0.242188
497576.0,-6.394531,-4.179688,-0.648438,1.285156,1.671875,-2.507812,1.150391,1.521484,0.158203
497591.0,-6.589844,-4.101562,-0.574219,0.816406,1.648438,-2.175781,1.177734,1.613281,0.263672
497605.0,-7.117188,-4.214844,-0.304688,0.671875,1.515625,-2.039062,1.212891,1.771484,0.476562
497629.0,-7.695312,-4.332031,0.078125,0.085938,1.183594,-1.359375,1.242188,1.84375,0.587891
497645.0,-8.117188,-4.292969,0.269531,-0.074219,1.105469,-1.113281,1.308594,2.023438,0.900391
497671.0,-8.464844,-4.253906,0.421875,-0.511719,0.941406,-0.515625,1.304688,2.064453,0.984375
497686.0,-8.6875,-4.0625,0.769531,-0.519531,0.921875,-0.292969,1.177734,2.101562,1.171875
497698.0,-8.691406,-4.023438,0.882812,-0.402344,0.820312,0.171875,1.123047,2.078125,1.216797
497717.0,-8.808594,-4.0625,1.1875,-0.445312,0.746094,0.496094,1.050781,1.990234,1.291016
497736.0,-8.960938,-4.253906,1.34375,-0.34375,0.359375,0.929688,1.029297,1.875,1.328125
497756.0,-9.109375,-4.523438,1.457031,-0.449219,-0.1875,1.324219,1.019531,1.746094,1.320312
497776.0,-9.1875,-4.484375,1.609375,-0.433594,-0.382812,1.480469,0.947266,1.587891,1.269531
497796.0,-9.269531,-4.5625,1.878906,-0.40625,-0.710938,2.175781,0.873047,1.414062,1.191406
497817.0,-9.226562,-4.675781,1.992188,-0.40625,-0.851562,2.316406,0.826172,1.248047,1.099609
497846.0,-8.804688,-4.90625,2.070312,0.046875,-1.53125,2.890625,0.800781,1.0,0.941406
497870.0,-8.921875,-5.328125,1.917969,0.117188,-2.21875,2.871094,0.84375,0.802734,0.861328
497886.0,-9.757812,-5.789062,2.070312,-0.289062,-2.519531,2.984375,0.910156,0.628906,0.808594
497898.0,-10.074219,-5.941406,2.183594,-0.984375,-3.027344,3.238281,0.958984,0.599609,0.753906
497950.0,-9.574219,-5.671875,2.683594,-0.4375,-2.9375,3.832031,1.070312,0.345703,0.275391
497966.0,-9.570312,-5.558594,2.492188,-0.4375,-2.898438,3.746094,1.105469,0.083984,0.025391
497986.0,-9.496094,-5.289062,2.148438,-0.402344,-2.570312,3.386719,1.09375,-0.212891,-0.212891
498006.0,-9.574219,-5.097656,1.800781,-0.371094,-2.347656,2.976562,0.970703,-0.564453,-0.398438
498027.0,-9.574219,-4.90625,1.535156,-0.539062,-2.054688,2.339844,0.652344,-0.900391,-0.523438
498046.0,-9.453125,-4.675781,1.496094,-0.46875,-1.929688,2.246094,0.173828,-1.128906,-0.572266
498067.0,-9.070312,-4.484375,1.304688,-0.125,-1.414062,1.71875,-0.392578,-1.291016,-0.609375
498088.0,-8.921875,-4.371094,1.265625,0.117188,-1.105469,1.421875,-0.990234,-1.435547,-0.679688
498106.0,-8.542969,-3.605469,1.226562,0.410156,-0.398438,1.140625,-1.615234,-1.542969,-0.753906
498126.0,-8.503906,-3.296875,1.34375,0.429688,0.125,1.085938,-2.205078,-1.625,-0.791016
498146.0,-8.921875,-3.296875,1.417969,0.128906,0.445312,1.058594,-2.697266,-1.667969,-0.787109
498167.0,-9.417969,-3.488281,1.382812,-0.09375,0.484375,1.003906,-3.074219,-1.669922,-0.765625
498196.0,-10.492188,-4.023438,1.226562,-1.253906,0.320312,0.828125,-3.365234,-1.615234,-0.78125
498220.0,-10.679688,-4.371094,1.226562,-2.144531,0.035156,0.710938,-3.275391,-1.488281,-0.871094
498236.0,-10.257812,-4.40625,1.457031,-2.046875,0.09375,0.796875,-2.908203,-1.318359,-1.013672
498259.0,-9.417969,-4.484375,1.609375,-1.097656,0.335938,1.148438,-2.251953,-1.154297,-1.15625
498299.0,-8.726562,-3.910156,1.226562,-0.691406,1.371094,0.71875,-0.859375,-0.966797,-1.369141
498316.0,-8.609375,-3.640625,1.226562,-0.730469,1.640625,0.671875,-0.476562,-0.923828,-1.396484
498340.0,-8.652344,-3.257812,1.382812,-0.941406,2.476562,0.6875,-0.275391,-0.878906,-1.367188
498357.0,-8.730469,-3.066406,1.535156,-1.027344,2.699219,0.660156,-0.185547,-0.826172,-1.326172
498387.0,-8.769531,-2.800781,1.726562,-1.390625,3.304688,0.804688,-0.109375,-0.736328,-1.171875
498409.0,-8.726562,-2.683594,1.6875,-1.589844,3.714844,0.625,-0.097656,-0.708984,-1.103516
498419.0,-8.648438,-2.683594,1.648438,-1.589844,3.785156,0.539062,-0.107422,-0.662109,-0.943359
498436.0,-8.539062,-2.722656,1.609375,-1.613281,3.855469,0.460938,-0.138672,-0.626953,-0.759766
498451.0,-8.421875,-2.800781,1.574219,-1.371094,3.8125,0.277344,-0.134766,-0.605469,-0.669922
498467.0,-8.0,-2.875,1.417969,-1.3125,3.8125,0.191406,-0.09375,-0.560547,-0.498047
498491.0,-7.621094,-2.722656,1.304688,-0.882812,4.050781,-0.054688,-0.050781,-0.535156,-0.314453
498506.0,-7.460938,-2.609375,1.265625,-0.792969,4.144531,-0.09375,-0.052734,-0.513672,-0.119141
498531.0,-7.503906,-2.570312,1.304688,-0.824219,4.21875,-0.1875,-0.126953,-0.482422,0.091797
498547.0,-7.695312,-2.644531,1.34375,-0.898438,4.171875,-0.210938,-0.208984,-0.417969,0.326172
498570.0,-8.117188,-2.953125,1.382812,-1.367188,3.742188,-0.179688,-0.261719,-0.335938,0.580078
498586.0,-8.34375,-3.144531,1.34375,-1.402344,3.628906,-0.179688,-0.273438,-0.226562,0.837891
498610.0,-8.808594,-3.527344,1.34375,-1.84375,2.933594,-0.21875,-0.242188,-0.109375,1.115234
498626.0,-9.152344,-3.832031,1.1875,-1.957031,2.695312,-0.25,-0.167969,0.007812,1.375
498639.0,-9.269531,-4.0625,1.035156,-2.054688,2.109375,-0.496094,-0.109375,0.089844,1.482422
498719.0,-9.609375,-7.933594,-2.257812,-1.539062,-2.917969,-3.671875,1.101562,0.767578,1.876953
498736.0,-10.339844,-8.8125,-3.332031,-1.851562,-3.648438,-4.316406,1.390625,1.068359,1.876953
498754.0,-10.183594,-8.929688,-3.636719,-2.058594,-4.164062,-4.722656,1.279297,1.236328,1.771484
498768.0,-10.148438,-8.582031,-3.484375,-1.671875,-4.269531,-4.773438,0.890625,1.542969,1.365234
498787.0,-9.1875,-7.625,-1.761719,-1.054688,-3.609375,-3.511719,0.75,1.789062,0.830078
498827.0,-8.078125,-6.820312,0.230469,0.472656,-3.148438,-0.675781,2.15625,2.025391,-0.394531
498857.0,-8.308594,-6.285156,0.691406,0.742188,-2.722656,0.292969,3.367188,1.75,-1.130859
498878.0,-9.375,-4.867188,0.613281,-0.011719,-1.792969,0.316406,3.648438,1.443359,-1.453125
498897.0,-9.652344,-3.871094,0.882812,-0.746094,-0.65625,0.300781,3.367188,1.083984,-1.599609
498925.0,-10.152344,-2.914062,1.382812,-1.773438,1.78125,0.859375,2.742188,0.71875,-1.533203
498977.0,-9.691406,-2.148438,2.148438,-1.808594,3.0625,1.3125,0.394531,0.007812,-0.84375
498999.0,-8.921875,-2.453125,2.03125,-0.960938,2.890625,1.195312,0.070312,-0.050781,-0.710938
499040.0,-7.316406,-2.722656,1.839844,0.570312,2.753906,1.113281,-0.947266,-0.125,-0.140625
499057.0,-7.042969,-2.875,1.726562,0.722656,2.683594,1.113281,-1.019531,-0.142578,0.048828
499081.0,-6.894531,-3.183594,1.6875,1.015625,2.292969,1.132812,-0.921875,-0.140625,0.205078
499097.0,-7.0,-3.375,1.648438,0.945312,2.15625,1.132812,-0.705078,-0.119141,0.349609
499120.0,-7.421875,-3.527344,1.726562,0.558594,1.832031,1.289062,-0.431641,-0.091797,0.470703
499137.0,-7.773438,-3.640625,1.6875,0.429688,1.753906,1.265625,-0.148438,-0.076172,0.583984
499152.0,-7.960938,-3.640625,1.6875,-0.085938,1.585938,1.257812,-0.015625,-0.082031,0.636719
499168.0,-8.386719,-3.640625,1.726562,-0.160156,1.515625,1.289062,0.144531,-0.119141,0.744141
499190.0,-8.808594,-3.640625,1.609375,-0.585938,1.320312,1.117188,0.15625,-0.146484,0.785156
499207.0,-8.960938,-3.757812,1.417969,-0.617188,1.25,1.019531,-0.058594,-0.296875,0.890625
499232.0,-8.886719,-4.40625,0.652344,-0.492188,0.242188,0.058594,-0.257812,-0.484375,0.931641
499249.0,-8.765625,-4.828125,0.15625,-0.328125,-0.257812,-0.460938,-0.5,-0.683594,0.939453
499272.0,-8.648438,-7.128906,-1.761719,-0.105469,-2.792969,-2.496094,-0.775391,-0.820312,0.890625
499287.0,-8.386719,-8.316406,-2.410156,0.117188,-3.550781,-2.878906,-0.867188,-0.830078,0.773438
499311.0,-7.886719,-8.964844,-2.832031,0.761719,-4.871094,-3.699219,-0.814453,-0.640625,0.556641
499327.0,-7.695312,-8.773438,-2.449219,0.855469,-4.949219,-3.523438,-0.667969,-0.353516,0.261719
499351.0,-7.425781,-7.703125,-1.53125,1.246094,-3.664062,-2.414062,-0.351562,-0.091797,-0.146484
499367.0,-7.777344,-7.511719,-1.148438,1.121094,-3.570312,-2.167969,0.126953,0.201172,-0.4375
499391.0,-8.769531,-6.859375,-0.496094,-0.15625,-2.679688,-1.324219,0.605469,0.402344,-0.650391
499407.0,-9.226562,-6.246094,-0.074219,-0.496094,-2.320312,-1.164062,0.857422,0.474609,-0.763672
499431.0,-9.378906,-5.328125,0.691406,-0.878906,-0.914062,-0.113281,1.013672,0.478516,-0.818359
499447.0,-9.269531,-4.5625,1.1875,-0.882812,-0.453125,0.109375,1.091797,0.412109,-0.853516
499460.0,-9.152344,-4.292969,1.34375,-0.761719,0.316406,0.5,1.097656,0.347656,-0.859375
499487.0,-8.925781,-3.414062,1.496094,-0.675781,1.0625,0.605469,0.853516,0.09375,-0.814453
499511.0,-8.808594,-2.800781,1.496094,-0.601562,2.113281,0.511719,0.408203,-0.113281,-0.728516
499527.0,-8.847656,-2.683594,1.609375,-0.671875,2.214844,0.566406,-0.109375,-0.298828,-0.603516
499547.0,-8.6875,-2.835938,1.839844,-0.621094,2.347656,0.71875,-0.523438,-0.416016,-0.480469
499567.0,-8.6875,-3.144531,1.839844,-0.605469,2.164062,0.824219,-0.736328,-0.482422,-0.353516
499587.0,-8.648438,-3.183594,1.800781,-0.691406,2.007812,0.785156,-0.828125,-0.541016,-0.232422
499607.0,-8.609375,-3.144531,1.800781,-0.644531,2.144531,0.785156,-0.912109,-0.568359,-0.119141
499627.0,-8.347656,-3.183594,1.765625,-0.476562,2.144531,0.71875,-0.978516,-0.585938,0.001953
499647.0,-8.226562,-3.21875,1.6875,-0.332031,2.125,0.695312,-1.019531,-0.599609,0.132812
499687.0,-8.039062,-3.335938,1.535156,-0.085938,2.015625,0.527344,-1.072266,-0.613281,0.384766
499708.0,-8.160156,-3.605469,1.382812,-0.132812,1.851562,0.464844,-1.082031,-0.611328,0.494141
499729.0,-8.1875,-3.679688,1.265625,-0.148438,1.628906,0.390625,-1.076172,-0.582031,0.587891
499748.0,-8.34375,-3.871094,1.226562,-0.230469,1.292969,0.265625,-1.054688,-0.533203,0.652344
499781.0,-8.304688,-4.332031,1.265625,-0.113281,0.605469,0.335938,-0.826172,-0.449219,0.714844
499797.0,-8.386719,-4.40625,1.1875,-0.15625,0.46875,0.296875,-0.580078,-0.369141,0.740234
499822.0,-8.5,-4.40625,1.074219,-0.171875,0.289062,0.128906,-0.363281,-0.306641,0.744141
499838.0,-8.542969,-4.40625,1.035156,-0.140625,0.226562,0.082031,-0.234375,-0.251953,0.738281
499878.0,-8.765625,-4.636719,0.730469,-0.246094,-0.253906,-0.148438,-0.169922,-0.226562,0.669922
499901.0,-8.925781,-4.792969,0.269531,-0.351562,-0.574219,-0.769531,-0.257812,-0.253906,0.623047
499918.0,-8.964844,-5.019531,0.078125,-0.328125,-0.742188,-0.851562,-0.429688,-0.296875,0.552734
499938.0,-8.960938,-5.328125,-0.074219,-0.328125,-1.171875,-1.0625,-0.636719,-0.304688,0.453125
499958.0,-8.925781,-5.367188,-0.191406,-0.21875,-1.394531,-1.28125,-0.816406,-0.28125,0.322266
499972.0,-8.847656,-5.480469,-0.265625,-0.085938,-1.511719,-1.3125,-0.865234,-0.257812,0.248047
499988.0,-8.613281,-5.558594,-0.191406,-0.003906,-1.566406,-1.257812,-0.8125,-0.181641,0.099609
500011.0,-8.421875,-5.710938,0.078125,0.265625,-1.742188,-0.90625,-0.703125,-0.134766,0.027344
500028.0,-8.425781,-5.519531,0.230469,0.265625,-1.695312,-0.773438,-0.169922,0.025391,-0.162109
500051.0,-8.570312,-4.945312,0.460938,0.097656,-0.929688,-0.476562,-0.017578,0.066406,-0.207031
500091.0,-8.6875,-4.40625,0.921875,-0.058594,-0.289062,-0.007812,0.212891,0.140625,-0.328125
500108.0,-8.726562,-4.214844,0.996094,-0.074219,-0.152344,0.074219,0.179688,0.121094,-0.328125
500131.0,-8.804688,-4.023438,1.152344,-0.226562,0.203125,0.238281,0.095703,0.082031,-0.322266
500148.0,-8.84375,-3.910156,1.152344,-0.28125,0.300781,0.199219,-0.019531,0.042969,-0.310547
500171.0,-8.804688,-3.949219,1.226562,-0.273438,0.386719,0.335938,-0.068359,0.025391,-0.302734
500212.0,-8.6875,-3.910156,1.382812,-0.207031,0.519531,0.507812,-0.107422,-0.042969,-0.246094
500228.0,-8.691406,-3.796875,1.382812,-0.214844,0.621094,0.542969,-0.095703,-0.076172,-0.232422
500251.0,-8.652344,-3.757812,1.417969,-0.207031,0.75,0.535156,-0.115234,-0.109375,-0.207031
500268.0,-8.652344,-3.757812,1.382812,-0.222656,0.8125,0.492188,-0.115234,-0.130859,-0.183594
500291.0,-8.570312,-3.757812,1.34375,-0.167969,0.820312,0.4375,-0.087891,-0.148438,-0.162109
500308.0,-8.539062,-3.796875,1.265625,-0.175781,0.789062,0.421875,-0.056641,-0.166016,-0.130859
500328.0,-8.542969,-3.796875,1.226562,-0.15625,0.804688,0.320312,-0.015625,-0.175781,-0.103516
500348.0,-8.542969,-3.796875,1.226562,-0.171875,0.820312,0.21875,0.009766,-0.175781,-0.066406
500363.0,-8.542969,-3.796875,1.1875,-0.140625,0.835938,0.1875,0.023438,-0.177734,-0.044922
500378.0,-8.503906,-3.796875,1.152344,-0.09375,0.835938,0.136719,0.023438,-0.173828,0.003906
500402.0,-8.464844,-3.832031,1.074219,-0.101562,0.792969,0.011719,0.021484,-0.171875,0.03125
500418.0,-8.460938,-3.871094,0.996094,-0.09375,0.777344,-0.042969,-0.011719,-0.164062,0.119141
500442.0,-8.386719,-3.910156,0.921875,-0.007812,0.667969,-0.195312,-0.058594,-0.144531,0.179688
500458.0,-8.382812,-3.988281,0.882812,-0.039062,0.613281,-0.242188,-0.103516,-0.119141,0.228516
500482.0,-8.347656,-4.214844,0.804688,0.066406,0.285156,-0.328125,-0.115234,-0.083984,0.277344
500498.0,-8.382812,-4.292969,0.652344,0.082031,0.222656,-0.410156,-0.097656,-0.050781,0.318359
500522.0,-8.34375,-4.445312,0.539062,0.121094,-0.054688,-0.601562,-0.080078,-0.013672,0.353516
500538.0,-8.382812,-4.601562,0.539062,0.101562,-0.203125,-0.601562,-0.060547,0.027344,0.382812
500562.0,-8.503906,-4.714844,0.421875,0.039062,-0.449219,-0.695312,-0.029297,0.080078,0.396484
500578.0,-8.542969,-4.792969,0.421875,0.054688,-0.535156,-0.722656,-0.021484,0.123047,0.392578
500603.0,-8.542969,-4.828125,0.460938,0.078125,-0.703125,-0.609375,-0.023438,0.166016,0.371094
500619.0,-8.570312,-4.753906,0.5,0.058594,-0.707031,-0.59375,-0.037109,0.212891,0.333984
500642.0,-8.574219,-4.714844,0.691406,0.105469,-0.707031,-0.300781,-0.060547,0.25,0.285156
500658.0,-8.648438,-4.753906,0.730469,0.082031,-0.777344,-0.269531,-0.033203,0.275391,0.224609
500682.0,-8.6875,-4.753906,0.882812,0.035156,-0.824219,0.0,0.027344,0.283203,0.148438
500699.0,-8.730469,-4.675781,0.960938,0.042969,-0.800781,0.0625,0.091797,0.273438,0.074219
500723.0,-8.765625,-4.601562,1.074219,-0.023438,-0.703125,0.269531,0.128906,0.257812,-0.007812
500752.0,-8.804688,-4.445312,1.074219,-0.0625,-0.53125,0.316406,0.138672,0.226562,-0.072266
500769.0,-8.804688,-4.40625,1.113281,-0.101562,-0.523438,0.371094,0.167969,0.166016,-0.148438
500791.0,-8.769531,-4.332031,1.226562,-0.039062,-0.371094,0.507812,0.181641,0.150391,-0.167969
500808.0,-8.726562,-4.214844,1.1875,-0.011719,-0.324219,0.546875,0.220703,0.107422,-0.193359
500833.0,-8.648438,-4.0625,1.265625,0.042969,-0.046875,0.546875,0.210938,0.076172,-0.191406
500849.0,-8.652344,-4.023438,1.265625,0.042969,0.007812,0.546875,0.171875,0.048828,-0.175781
500872.0,-8.652344,-3.949219,1.265625,0.019531,0.128906,0.539062,0.101562,0.027344,-0.148438
500888.0,-8.652344,-3.949219,1.304688,0.011719,0.144531,0.570312,0.021484,0.011719,-0.115234
500912.0,-8.570312,-3.949219,1.304688,0.082031,0.167969,0.570312,-0.013672,0.003906,-0.095703
500928.0,-8.574219,-3.988281,1.304688,0.074219,0.136719,0.570312,-0.072266,-0.029297,-0.054688
500952.0,-8.613281,-4.023438,1.265625,0.027344,0.117188,0.53125,-0.074219,-0.044922,-0.046875
500969.0,-8.652344,-4.023438,1.265625,-0.011719,0.117188,0.492188,-0.074219,-0.076172,-0.03125
500992.0,-8.613281,-4.0625,1.1875,0.019531,0.085938,0.445312,-0.074219,-0.097656,-0.029297
501008.0,-8.652344,-4.0625,1.113281,-0.019531,0.09375,0.4375,-0.080078,-0.119141,-0.029297
501032.0,-8.613281,-4.0625,1.035156,0.011719,0.101562,0.261719,-0.095703,-0.142578,-0.029297
501048.0,-8.609375,-4.140625,0.996094,-0.027344,0.0625,0.285156,-0.101562,-0.162109,-0.035156
501072.0,-8.652344,-4.179688,0.921875,-0.035156,0.007812,0.101562,-0.103516,-0.175781,-0.044922
501089.0,-8.648438,-4.179688,0.882812,0.003906,0.054688,0.085938,-0.101562,-0.1875,-0.054688
501112.0,-8.652344,-4.214844,0.769531,-0.050781,-0.003906,-0.097656,-0.101562,-0.199219,-0.060547
501129.0,-8.648438,-4.214844,0.691406,-0.058594,-0.003906,-0.152344,-0.123047,-0.210938,-0.0625
501149.0,-8.6875,-4.214844,0.578125,-0.066406,0.011719,-0.253906,-0.150391,-0.203125,-0.064453
501169.0,-8.652344,-4.253906,0.539062,-0.113281,0.019531,-0.359375,-0.175781,-0.1875,-0.0625
501190.0,-8.570312,-4.292969,0.460938,-0.042969,-0.042969,-0.453125,-0.189453,-0.164062,-0.0625
501209.0,-8.542969,-4.292969,0.421875,-0.011719,-0.035156,-0.5,-0.175781,-0.130859,-0.054688
501229.0,-8.464844,-4.292969,0.421875,0.054688,-0.011719,-0.554688,-0.154297,-0.097656,-0.054688
501249.0,-8.574219,-4.332031,0.386719,0.046875,-0.042969,-0.554688,-0.115234,-0.058594,-0.046875
501263.0,-8.542969,-4.253906,0.421875,0.0,0.082031,-0.589844,-0.095703,-0.039062,-0.046875
501279.0,-8.574219,-4.292969,0.421875,-0.035156,0.089844,-0.589844,-0.046875,0.007812,-0.048828
501303.0,-8.539062,-4.292969,0.539062,0.0,0.027344,-0.429688,0.035156,0.060547,-0.042969
501319.0,-8.539062,-4.253906,0.578125,0.03125,0.066406,-0.429688,0.126953,0.099609,-0.033203
501343.0,-8.570312,-4.101562,0.539062,-0.042969,0.226562,-0.414062,0.1875,0.130859,-0.017578
501359.0,-8.609375,-4.023438,0.578125,-0.082031,0.265625,-0.375,0.189453,0.15625,-0.003906
501381.0,-8.574219,-4.0625,0.691406,-0.035156,0.257812,-0.238281,0.1875,0.167969,0.005859
501414.0,-8.609375,-3.988281,0.804688,-0.058594,0.316406,-0.09375,0.208984,0.203125,0.042969
501429.0,-8.648438,-3.949219,0.769531,-0.050781,0.308594,-0.085938,0.193359,0.214844,0.078125
501453.0,-8.613281,-3.988281,0.84375,-0.035156,0.285156,-0.015625,0.181641,0.21875,0.091797
501469.0,-8.613281,-3.988281,0.882812,-0.027344,0.277344,0.03125,0.154297,0.21875,0.126953
501502.0,-8.652344,-4.0625,0.882812,-0.042969,0.140625,0.085938,0.173828,0.222656,0.154297
501519.0,-8.652344,-4.023438,0.921875,-0.027344,0.125,0.132812,0.1875,0.224609,0.167969
501534.0,-8.609375,-4.023438,0.882812,0.027344,0.132812,0.15625,0.191406,0.226562,0.171875
501549.0,-8.609375,-4.023438,0.882812,0.035156,0.117188,0.171875,0.1875,0.21875,0.181641
501573.0,-8.652344,-4.0625,0.882812,0.027344,0.023438,0.164062,0.177734,0.210938,0.183594
501590.0,-8.6875,-4.101562,0.84375,0.035156,0.007812,0.132812,0.138672,0.175781,0.189453
501612.0,-8.765625,-4.179688,0.84375,-0.054688,-0.15625,0.164062,0.130859,0.167969,0.185547
501630.0,-8.726562,-4.214844,0.882812,-0.011719,-0.171875,0.171875,0.130859,0.146484,0.162109
501654.0,-8.769531,-4.214844,1.035156,-0.023438,-0.253906,0.386719,0.121094,0.154297,0.134766
501672.0,-8.730469,-4.140625,0.960938,0.019531,-0.195312,0.320312,0.072266,0.166016,0.117188
501700.0,-8.6875,-4.214844,0.539062,0.035156,-0.21875,-0.03125,0.017578,0.125,0.082031
501719.0,-8.6875,-4.371094,0.539062,0.082031,-0.386719,-0.085938,0.064453,0.099609,0.0625
501739.0,-8.613281,-4.371094,0.539062,0.128906,-0.480469,0.007812,0.132812,0.089844,0.046875
501779.0,-8.6875,-4.214844,0.578125,0.136719,-0.378906,-0.023438,0.177734,0.082031,0.013672
501800.0,-8.652344,-4.214844,0.613281,0.097656,-0.339844,0.015625,0.197266,0.083984,-0.007812
501819.0,-8.6875,-4.140625,0.691406,0.136719,-0.3125,0.089844,0.203125,0.087891,-0.023438
501840.0,-8.730469,-4.0625,0.730469,0.097656,-0.273438,0.128906,0.166016,0.091797,-0.039062
501859.0,-8.726562,-4.101562,0.769531,0.050781,-0.1875,0.167969,0.128906,0.095703,-0.054688
501884.0,-8.769531,-4.140625,0.730469,0.015625,-0.25,0.175781,0.123047,0.09375,-0.058594
501899.0,-8.765625,-4.140625,0.769531,-0.023438,-0.289062,0.183594,0.134766,0.09375,-0.080078
501925.0,-8.804688,-3.988281,0.730469,-0.03125,-0.074219,0.191406,0.107422,0.091797,-0.09375
501964.0,-8.691406,-3.949219,0.460938,0.066406,0.003906,-0.0625,0.064453,0.09375,-0.097656
501979.0,-8.613281,-3.988281,0.460938,0.097656,-0.027344,-0.054688,0.068359,0.082031,-0.103516
502003.0,-8.542969,-3.988281,0.386719,0.203125,-0.003906,-0.121094,0.078125,0.082031,-0.089844
502020.0,-8.609375,-3.949219,0.460938,0.160156,0.003906,-0.113281,0.126953,0.070312,-0.060547
502043.0,-8.613281,-3.910156,0.539062,0.113281,0.097656,0.039062,0.142578,0.072266,-0.048828
502060.0,-8.652344,-3.871094,0.5,0.074219,0.097656,0.039062,0.154297,0.091797,-0.015625
502082.0,-8.730469,-3.949219,0.539062,-0.003906,0.058594,0.046875,0.144531,0.091797,-0.005859
502124.0,-8.726562,-3.988281,0.613281,0.003906,0.011719,0.128906,0.177734,0.097656,0.029297
502140.0,-8.730469,-3.949219,0.652344,0.003906,0.003906,0.167969,0.189453,0.085938,0.041016
502164.0,-8.8125,-3.902344,0.652344,-0.109375,0.097656,0.050781,0.15625,0.082031,0.046875
502180.0,-8.894531,-3.941406,0.691406,-0.109375,0.050781,0.089844,0.109375,0.066406,0.060547
502203.0,-8.855469,-3.976562,0.730469,-0.132812,-0.007812,0.128906,0.070312,0.068359,0.064453
502220.0,-8.8125,-4.054688,0.691406,-0.117188,-0.054688,0.128906,0.052734,0.0625,0.074219
502243.0,-8.773438,-4.09375,0.691406,-0.023438,-0.148438,0.089844,0.041016,0.060547,0.085938
502260.0,-8.738281,-4.09375,0.617188,-0.015625,-0.15625,0.015625,0.011719,0.050781,0.095703
502282.0,-8.738281,-4.132812,0.617188,0.03125,-0.210938,0.023438,-0.027344,0.046875,0.099609
502314.0,-8.777344,-4.246094,0.652344,0.007812,-0.347656,0.074219,-0.050781,0.042969,0.097656
502330.0,-8.8125,-4.246094,0.617188,0.007812,-0.308594,0.074219,-0.060547,0.041016,0.072266
502354.0,-8.851562,-4.285156,0.617188,-0.0625,-0.402344,0.0625,-0.058594,0.037109,0.058594
502369.0,-8.851562,-4.246094,0.578125,-0.054688,-0.402344,0.0625,-0.052734,0.019531,0.015625
502393.0,-8.894531,-4.246094,0.539062,-0.09375,-0.363281,0.0,-0.058594,0.009766,-0.001953
502410.0,-8.851562,-4.246094,0.5,-0.09375,-0.363281,0.0,-0.068359,-0.011719,-0.052734
502434.0,-8.851562,-4.246094,0.5,-0.054688,-0.339844,-0.039062,-0.068359,-0.033203,-0.074219
502450.0,-8.851562,-4.207031,0.5,-0.0625,-0.292969,-0.039062,-0.074219,-0.037109,-0.097656
502474.0,-8.8125,-4.132812,0.5,-0.03125,-0.1875,-0.039062,-0.095703,-0.037109,-0.113281
502490.0,-8.777344,-4.132812,0.460938,-0.039062,-0.179688,-0.039062,-0.119141,-0.037109,-0.121094
502513.0,-8.734375,-4.132812,0.386719,0.023438,-0.140625,-0.152344,-0.117188,-0.029297,-0.125
502536.0,-8.734375,-4.132812,0.386719,0.023438,-0.085938,-0.144531,-0.111328,-0.021484,-0.126953
502554.0,-8.699219,-4.132812,0.386719,0.035156,-0.09375,-0.144531,-0.091797,-0.009766,-0.128906
502570.0,-8.65625,-4.132812,0.386719,0.035156,-0.039062,-0.128906,-0.0625,0.001953,-0.126953
502593.0,-8.660156,-4.015625,0.347656,0.058594,0.078125,-0.160156,-0.056641,0.003906,-0.126953
502625.0,-8.695312,-3.976562,0.425781,0.003906,0.15625,-0.082031,-0.058594,0.001953,-0.117188
502640.0,-8.738281,-3.976562,0.425781,-0.003906,0.164062,-0.113281,-0.09375,0.001953,-0.091797
502673.0,-8.695312,-3.976562,0.425781,-0.011719,0.195312,-0.058594,-0.105469,0.007812,-0.072266
502690.0,-8.699219,-3.976562,0.386719,-0.019531,0.203125,-0.089844,-0.115234,0.009766,-0.044922
502745.0,-8.695312,-4.054688,0.347656,-0.027344,0.140625,-0.097656,-0.115234,0.009766,-0.011719
502760.0,-8.695312,-4.054688,0.347656,-0.0625,0.179688,-0.097656,-0.111328,0.003906,-0.009766
502784.0,-8.65625,-4.054688,0.308594,0.074219,0.015625,-0.105469,-0.099609,0.001953,-0.009766
502801.0,-8.660156,-4.09375,0.308594,0.074219,0.015625,-0.136719,-0.095703,-0.007812,-0.021484
502822.0,-8.621094,-4.09375,0.234375,0.105469,-0.015625,-0.15625,-0.09375,-0.007812,-0.023438
502833.0,-8.65625,-4.054688,0.234375,0.066406,0.023438,-0.15625,-0.09375,-0.007812,-0.025391
502865.0,-8.621094,-4.09375,0.15625,0.097656,-0.007812,-0.210938,-0.09375,-0.001953,-0.029297
502881.0,-8.621094,-4.09375,0.117188,0.089844,0.0,-0.234375,-0.087891,0.001953,-0.027344
502904.0,-8.660156,-4.132812,0.117188,0.042969,-0.03125,-0.203125,-0.091797,0.007812,-0.019531
502920.0,-8.660156,-4.132812,0.15625,-0.003906,-0.03125,-0.234375,-0.074219,0.023438,-0.009766
502945.0,-8.582031,-4.132812,0.078125,0.105469,-0.03125,-0.195312,-0.072266,0.027344,0.001953
502961.0,-8.621094,-4.132812,0.078125,0.066406,-0.03125,-0.1875,-0.080078,0.039062,0.007812
502984.0,-8.542969,-4.167969,0.039062,0.144531,-0.066406,-0.179688,-0.076172,0.046875,0.013672
503001.0,-8.582031,-4.207031,0.078125,0.097656,-0.066406,-0.132812,-0.070312,0.058594,0.019531
503024.0,-8.660156,-4.207031,0.078125,0.011719,-0.097656,-0.085938,-0.068359,0.064453,0.019531
503041.0,-8.660156,-4.207031,0.039062,0.003906,-0.058594,-0.109375,-0.060547,0.072266,0.017578
503064.0,-8.621094,-4.207031,0.078125,0.042969,-0.097656,-0.03125,-0.041016,0.082031,0.013672
503080.0,-8.621094,-4.246094,0.078125,0.042969,-0.136719,0.015625,-0.011719,0.083984,0.011719
503105.0,-8.621094,-4.167969,0.117188,0.035156,-0.050781,0.046875,0.009766,0.080078,0.005859
503134.0,-8.542969,-4.167969,0.078125,0.113281,-0.035156,0.03125,0.009766,0.074219,0.001953
503151.0,-8.582031,-4.167969,0.117188,0.074219,-0.035156,0.078125,0.001953,0.060547,0.005859
503173.0,-8.621094,-4.167969,0.15625,0.027344,-0.027344,0.132812,0.0,0.060547,0.005859
503191.0,-8.660156,-4.167969,0.15625,0.019531,-0.035156,0.179688,0.013672,0.054688,0.009766
503213.0,-8.660156,-4.167969,0.15625,-0.019531,-0.019531,0.132812,0.011719,0.052734,0.011719
503224.0,-8.695312,-4.207031,0.15625,-0.066406,-0.058594,0.140625,0.007812,0.042969,0.011719
503241.0,-8.660156,-4.207031,0.15625,-0.019531,-0.105469,0.101562,0.003906,0.035156,0.013672
503261.0,-8.621094,-4.246094,0.15625,-0.019531,-0.097656,0.101562,0.007812,0.025391,0.015625
503281.0,-8.660156,-4.246094,0.15625,0.019531,-0.097656,0.132812,0.019531,0.015625,0.011719
503302.0,-8.660156,-4.246094,0.15625,0.027344,-0.089844,0.085938,0.019531,0.009766,0.003906
503321.0,-8.660156,-4.207031,0.117188,-0.011719,-0.042969,0.078125,0.007812,0.001953,-0.005859
503341.0,-8.660156,-4.246094,0.117188,-0.019531,-0.074219,0.023438,0.001953,-0.003906,-0.017578
503361.0,-8.660156,-4.285156,0.078125,-0.019531,-0.074219,0.0625,0.009766,-0.015625,-0.025391
503381.0,-8.695312,-4.285156,0.078125,-0.058594,-0.097656,-0.023438,0.021484,-0.025391,-0.035156
503414.0,-8.65625,-4.207031,0.003906,-0.027344,0.003906,-0.074219,0.021484,-0.035156,-0.042969
503431.0,-8.65625,-4.246094,0.003906,-0.027344,-0.027344,-0.074219,0.015625,-0.035156,-0.046875
503454.0,-8.660156,-4.207031,-0.035156,-0.019531,0.035156,-0.128906,0.003906,-0.033203,-0.052734
503525.0,-8.621094,-4.207031,-0.035156,0.003906,0.066406,-0.121094,0.007812,-0.007812,-0.046875
503541.0,-8.621094,-4.207031,-0.035156,0.003906,0.027344,-0.160156,0.007812,-0.001953,-0.035156
503565.0,-8.65625,-4.167969,0.003906,-0.035156,0.113281,-0.066406,0.001953,0.003906,-0.029297
503581.0,-8.660156,-4.167969,0.039062,-0.042969,0.121094,-0.097656,-0.015625,0.007812,-0.017578
503603.0,-8.738281,-4.167969,0.039062,-0.109375,0.113281,-0.015625,-0.023438,0.011719,-0.011719
503645.0,-8.65625,-4.207031,0.003906,-0.027344,0.066406,-0.027344,-0.027344,0.021484,0.009766
503694.0,-8.660156,-4.207031,0.039062,-0.019531,0.042969,0.03125,-0.027344,0.019531,0.019531
503725.0,-8.621094,-4.207031,0.039062,0.027344,0.027344,0.039062,-0.029297,0.019531,0.017578
503741.0,-8.621094,-4.207031,0.039062,0.027344,0.066406,0.039062,-0.023438,0.019531,0.015625
503765.0,-8.695312,-4.207031,0.039062,-0.050781,0.019531,0.054688,-0.033203,0.011719,0.017578
503782.0,-8.695312,-4.207031,0.039062,-0.042969,0.011719,0.046875,-0.033203,0.009766,0.019531
503796.0,-8.699219,-4.207031,0.003906,-0.003906,0.011719,0.085938,-0.033203,0.005859,0.019531
503822.0,-8.582031,-4.207031,0.039062,0.035156,-0.035156,0.019531,-0.011719,0.005859,0.015625
503836.0,-8.617188,-4.207031,0.003906,0.074219,-0.003906,0.011719,-0.011719,0.003906,0.015625
503852.0,-8.542969,-4.167969,-0.035156,0.113281,0.035156,0.011719,-0.025391,-0.001953,0.015625
503875.0,-8.542969,-4.246094,-0.035156,0.105469,-0.042969,-0.027344,-0.029297,-0.009766,0.017578
503892.0,-8.582031,-4.246094,-0.035156,0.105469,-0.042969,-0.027344,-0.033203,-0.015625,0.011719
503932.0,-8.578125,-4.324219,-0.035156,0.058594,-0.082031,0.019531,0.011719,0.0,0.0
503954.0,-8.582031,-4.246094,-0.035156,0.050781,-0.035156,-0.027344,0.025391,0.0,-0.005859
503971.0,-8.542969,-4.246094,-0.035156,0.050781,-0.035156,0.011719,0.033203,-0.003906,-0.015625
503995.0,-8.507812,-4.207031,-0.035156,0.109375,0.011719,-0.027344,0.023438,-0.007812,-0.017578
504011.0,-8.46875,-4.207031,-0.035156,0.109375,-0.019531,0.003906,0.007812,-0.021484,-0.021484
504035.0,-8.511719,-4.246094,-0.074219,0.09375,-0.011719,-0.074219,0.001953,-0.029297,-0.019531
504051.0,-8.539062,-4.285156,-0.074219,0.058594,-0.011719,-0.074219,0.0,-0.035156,-0.013672
504091.0,-8.46875,-4.246094,-0.035156,0.078125,-0.042969,-0.035156,0.0,-0.017578,-0.001953
504114.0,-8.539062,-4.285156,0.003906,0.035156,-0.035156,0.003906,0.001953,-0.019531,0.003906
504155.0,-8.617188,-4.398438,0.039062,-0.050781,-0.148438,0.039062,-0.015625,-0.003906,0.029297
504171.0,-8.582031,-4.363281,0.039062,-0.003906,-0.15625,0.039062,-0.005859,0.007812,0.037109
504194.0,-8.582031,-4.363281,0.078125,-0.003906,-0.121094,0.078125,0.0,0.009766,0.027344
504226.0,-8.542969,-4.363281,0.15625,0.035156,-0.113281,0.148438,0.011719,0.007812,0.021484
504266.0,-8.65625,-4.324219,0.15625,-0.082031,-0.066406,0.132812,0.001953,-0.015625,0.015625
504281.0,-8.621094,-4.324219,0.195312,-0.042969,-0.019531,0.125,-0.058594,-0.042969,0.019531
504306.0,-8.539062,-4.324219,0.15625,0.035156,-0.058594,0.117188,-0.087891,-0.056641,0.017578
504321.0,-8.542969,-4.363281,0.234375,0.042969,-0.097656,0.140625,-0.085938,-0.0625,0.019531
504346.0,-8.539062,-4.398438,0.234375,0.042969,-0.125,0.15625,-0.060547,-0.060547,0.011719
504361.0,-8.542969,-4.363281,0.234375,0.042969,-0.082031,0.15625,-0.039062,-0.0625,0.009766
