Time,ax,ay,az,lax,lay,laz,gx,gy,gz
92279.0,7.671875,-3.175781,-3.292969,-0.644531,-0.011719,0.582031,-0.644531,0.210938,-0.070312
92303.0,6.789062,-3.097656,-3.027344,-1.710938,-0.027344,0.933594,-0.626953,0.203125,-0.095703
92319.0,5.949219,-2.945312,-2.910156,-2.070312,-0.023438,1.003906,-0.552734,0.164062,-0.126953
92343.0,3.6875,-2.292969,-2.757812,-4.84375,0.652344,1.203125,-0.460938,0.140625,-0.056641
92359.0,1.960938,-1.414062,-2.453125,-5.734375,1.011719,1.394531,-0.453125,0.130859,0.066406
92379.0,-0.222656,-0.265625,-2.492188,-8.03125,2.210938,1.625,-0.574219,0.080078,0.158203
92399.0,-0.910156,0.273438,-2.71875,-9.128906,2.878906,1.378906,-0.892578,-0.029297,0.216797
92419.0,0.738281,0.273438,-3.5625,-8.882812,3.375,0.890625,-1.388672,-0.087891,0.109375
92430.0,2.539062,-0.148438,-4.292969,-7.753906,3.070312,0.507812,-1.605469,-0.076172,0.013672
92446.0,5.792969,-1.222656,-6.398438,-5.9375,2.59375,-0.164062,-1.789062,-0.080078,-0.095703
92469.0,11.621094,-2.449219,-8.503906,0.789062,0.578125,-3.640625,-1.845703,-0.201172,-0.554688
92484.0,14.523438,-2.640625,-9.425781,9.722656,-0.054688,-6.089844,-1.730469,-0.234375,-0.763672
92499.0,25.332031,-0.457031,-15.09375,13.285156,0.910156,-7.714844,-1.953125,-0.404297,-0.990234
92523.0,25.976562,5.097656,-19.5,17.542969,6.628906,-14.820312,-1.982422,-0.429688,-0.941406
92541.0,23.535156,7.933594,-19.765625,15.109375,9.277344,-15.0,-3.240234,-1.099609,-0.826172
92559.0,31.042969,7.242188,-21.300781,21.460938,10.609375,-16.804688,-5.613281,-0.822266,-0.597656
92579.0,32.652344,1.113281,-17.773438,22.71875,7.796875,-16.144531,-5.380859,-0.037109,-0.730469
92592.0,32.652344,-1.644531,-13.5625,22.902344,-8.515625,0.300781,-4.298828,0.705078,-0.708984
92632.0,15.332031,-5.128906,0.34375,6.832031,-6.144531,5.359375,1.925781,0.476562,-1.505859
92649.0,6.941406,-2.066406,1.492188,2.710938,-4.023438,5.667969,2.734375,0.046875,-1.552734
92664.0,3.957031,-2.027344,2.257812,-5.535156,-3.523438,7.820312,2.740234,0.060547,-1.535156
92702.0,-7.382812,-4.707031,0.957031,-15.984375,-5.699219,6.003906,2.390625,0.355469,-1.035156
92721.0,-7.539062,-5.589844,0.535156,-16.15625,-6.550781,5.582031,1.691406,0.035156,-0.785156
92748.0,4.722656,-6.390625,-0.613281,-5.152344,-7.714844,4.632812,1.248047,0.523438,-0.349609
92773.0,1.195312,-4.636719,-0.957031,-7.546875,-5.414062,3.980469,1.058594,0.625,-0.080078
92788.0,-0.183594,-2.988281,-2.605469,-8.488281,-4.628906,3.050781,0.78125,0.46875,0.183594
92812.0,-0.796875,-2.5625,-2.800781,-9.640625,-3.101562,1.976562,0.386719,0.449219,0.582031
92829.0,-0.71875,-1.070312,-2.492188,-9.625,-2.296875,2.128906,0.164062,0.460938,0.957031
92852.0,-0.679688,0.921875,-2.074219,-9.617188,0.742188,2.53125,-0.384766,0.386719,1.152344
92869.0,-0.488281,0.234375,-1.800781,-9.511719,0.597656,2.617188,-0.757812,0.265625,1.181641
92888.0,-0.527344,-1.296875,-1.574219,-9.410156,-0.9375,2.867188,-0.539062,0.169922,1.15625
92906.0,-0.871094,-1.640625,-1.304688,-9.480469,-1.15625,2.921875,-0.341797,0.097656,1.162109
92921.0,-0.757812,-1.644531,-1.035156,-9.5625,-1.105469,3.585938,-0.158203,0.029297,1.183594
92953.0,-0.679688,0.117188,-0.382812,-9.554688,0.882812,4.070312,0.185547,-0.023438,1.068359
92990.0,-0.144531,-1.035156,-0.765625,-8.910156,0.078125,3.710938,0.001953,-0.207031,0.826172
93031.0,-1.253906,-0.339844,-2.875,-9.839844,1.058594,1.703125,0.96875,-0.710938,0.458984
93061.0,5.640625,-1.222656,-7.273438,-2.742188,0.457031,-2.535156,1.515625,-1.105469,0.287109
93071.0,11.382812,-1.296875,-10.152344,3.089844,0.492188,-5.339844,1.730469,-1.214844,0.302734
93102.0,48.738281,11.839844,-21.875,40.664062,13.792969,-16.828125,1.396484,-1.300781,0.234375
93118.0,34.753906,11.609375,-28.078125,38.335938,12.675781,-22.617188,-1.201172,0.111328,0.552734
93142.0,43.105469,10.652344,-26.394531,35.214844,12.285156,-20.972656,-4.03125,-1.873047,-0.232422
93158.0,41.191406,-1.144531,-25.667969,33.882812,6.695312,-21.304688,-3.904297,-0.992188,-0.066406
93200.0,34.144531,-5.207031,-13.5625,26.195312,-4.722656,-7.875,-0.333984,2.482422,-1.941406
93218.0,17.28125,-3.828125,-5.09375,13.515625,-6.851562,0.242188,1.199219,1.548828,-2.808594
93242.0,1.960938,-9.03125,1.457031,-6.59375,-9.511719,6.402344,1.001953,1.570312,-3.015625
93258.0,-7.921875,-13.175781,4.023438,-12.21875,-13.433594,8.089844,2.136719,0.652344,-2.267578
93271.0,-9.183594,-11.335938,3.640625,-17.871094,-12.210938,8.398438,2.673828,0.320312,-1.912109
93289.0,-8.496094,-3.289062,1.914062,-19.222656,-6.105469,7.851562,1.759766,0.302734,-1.216797
93321.0,1.238281,-0.761719,-1.074219,-7.546875,-1.792969,3.566406,-0.230469,0.705078,-0.357422
93338.0,3.796875,-1.683594,-2.71875,-7.355469,-0.386719,2.042969,-1.705078,0.25,0.322266
93352.0,1.847656,-4.363281,-2.03125,-8.703125,-6.109375,2.300781,-1.414062,0.351562,0.433594
93368.0,1.082031,-4.78125,-2.949219,-8.492188,-6.441406,2.109375,-0.664062,0.160156,0.410156
93392.0,0.738281,-2.679688,-2.144531,-8.183594,-3.796875,2.230469,0.361328,0.1875,0.634766
93408.0,0.699219,1.917969,-2.296875,-7.933594,-1.410156,2.097656,0.490234,0.152344,0.714844
93431.0,0.007812,2.339844,-1.914062,-8.960938,1.535156,2.429688,-0.195312,-0.080078,0.697266
93448.0,-0.871094,0.308594,-1.335938,-9.375,0.664062,2.703125,-0.410156,-0.179688,0.810547
93468.0,-1.753906,-2.332031,-0.535156,-10.660156,-2.207031,3.609375,-0.052734,-0.25,0.871094
93485.0,-1.140625,-2.789062,0.039062,-10.691406,-2.902344,3.855469,0.207031,-0.371094,0.880859
93507.0,-0.449219,-1.296875,0.535156,-9.433594,-2.015625,4.988281,0.621094,-0.501953,0.820312
93531.0,0.238281,-0.914062,0.613281,-8.542969,-0.914062,5.214844,0.564453,-0.410156,0.777344
93548.0,0.085938,-0.652344,0.574219,-8.558594,-0.601562,5.230469,0.277344,-0.181641,0.667969
93572.0,-0.144531,-2.21875,0.652344,-8.832031,-1.929688,5.292969,0.15625,-0.113281,0.587891
93587.0,-0.449219,-2.828125,0.382812,-8.929688,-2.355469,5.214844,0.625,-0.146484,0.525391
93611.0,-0.832031,-1.949219,-1.109375,-9.425781,-1.339844,3.539062,1.261719,-0.279297,0.519531
93627.0,-0.605469,-0.378906,-3.140625,-9.578125,-0.496094,2.402344,1.652344,-0.464844,0.4375
93650.0,4.722656,-0.035156,-8.082031,-3.699219,1.050781,-3.363281,1.650391,-0.544922,0.501953
93669.0,14.910156,1.039062,-18.542969,6.605469,2.320312,-13.738281,1.496094,-0.792969,0.470703
93683.0,23.152344,1.496094,-22.679688,26.21875,2.097656,-18.996094,-0.0625,-1.351562,0.382812
93707.0,37.890625,1.113281,-32.023438,41.714844,7.828125,-26.578125,-0.636719,-0.132812,1.0
93727.0,45.132812,5.40625,-24.707031,30.730469,10.726562,-20.394531,-2.306641,-1.539062,0.0
93749.0,35.976562,-1.414062,-22.027344,28.175781,-0.445312,-16.363281,-2.818359,-1.072266,-0.064453
93788.0,24.90625,-9.265625,-4.710938,16.730469,-8.984375,0.617188,-1.990234,2.279297,-0.904297
93821.0,8.09375,-11.023438,2.296875,-0.445312,-11.230469,7.171875,0.107422,1.847656,-1.986328
93837.0,-2.941406,-10.601562,2.488281,-6.1875,-11.632812,7.308594,2.289062,0.609375,-1.853516
93860.0,-11.558594,-3.367188,2.257812,-20.269531,-3.804688,6.9375,2.658203,0.40625,-1.568359
93879.0,-9.257812,0.082031,1.265625,-18.011719,-0.363281,5.90625,1.175781,0.779297,-0.960938
93901.0,1.65625,0.234375,-3.484375,-7.203125,-0.3125,0.984375,-0.154297,0.716797,-0.439453
93917.0,1.65625,1.957031,-4.066406,-8.621094,-1.28125,1.332031,-2.1875,0.607422,0.300781
93941.0,-0.335938,-4.667969,-2.71875,-9.335938,-5.363281,1.484375,-2.001953,0.574219,0.902344
93957.0,1.578125,-2.90625,-3.140625,-8.371094,-5.011719,1.464844,-1.373047,0.410156,1.044922
93977.0,1.617188,1.113281,-2.417969,-7.460938,-1.496094,1.378906,-0.992188,0.529297,1.080078
93997.0,0.164062,4.5625,-1.761719,-8.097656,3.035156,2.0,-1.404297,0.482422,0.876953
94017.0,-0.414062,0.347656,-1.035156,-9.699219,1.519531,2.441406,-1.4375,0.212891,0.605469
94029.0,-0.335938,-1.03125,-0.652344,-9.53125,-1.460938,3.152344,-1.054688,0.128906,0.517578
94050.0,-0.335938,-3.40625,-0.574219,-9.523438,-3.789062,3.214844,-0.521484,0.058594,0.439453
94067.0,-0.066406,-3.210938,-0.84375,-9.445312,-3.824219,3.105469,1.175781,-0.269531,0.234375
94088.0,-0.183594,-0.339844,-0.191406,-9.207031,-1.347656,3.308594,1.498047,-0.423828,0.234375
94120.0,-0.144531,1.847656,-0.039062,-9.199219,1.945312,3.914062,0.673828,-0.076172,0.306641
94151.0,-0.257812,1.152344,-0.191406,-9.40625,0.375,3.578125,-0.667969,0.181641,0.275391
94167.0,-0.71875,-1.71875,-0.34375,-9.589844,-0.734375,3.515625,-0.65625,0.214844,0.162109
94191.0,-0.871094,-3.597656,-0.152344,-9.871094,-3.425781,3.683594,0.074219,0.105469,0.091797
94207.0,-0.640625,-2.90625,-0.882812,-9.789062,-3.332031,3.4375,1.033203,-0.109375,0.042969
94229.0,0.429688,0.464844,-3.753906,-8.484375,0.808594,0.097656,1.400391,-0.261719,0.035156
94277.0,31.691406,3.910156,-13.597656,14.828125,3.96875,-7.75,0.912109,-1.226562,0.046875
94289.0,40.078125,6.859375,-16.472656,31.5,7.492188,-12.160156,0.695312,-1.167969,0.240234
94316.0,36.980469,17.128906,-28.042969,26.277344,12.054688,-22.953125,-0.132812,-1.943359,-0.105469
94340.0,43.984375,9.160156,-31.066406,35.742188,9.738281,-26.121094,-3.507812,-2.253906,-0.398438
94356.0,42.109375,-4.824219,-22.21875,35.214844,1.128906,-20.535156,-1.792969,-0.685547,-0.486328
94377.0,32.417969,-5.28125,-17.277344,27.019531,-4.570312,-14.1875,0.089844,0.376953,-1.457031
94396.0,27.058594,-7.007812,-9.769531,24.277344,-5.328125,-12.003906,1.216797,0.630859,-2.087891
94416.0,17.242188,-6.929688,-0.382812,12.007812,-7.023438,2.128906,1.548828,0.498047,-2.404297
94428.0,12.730469,-7.3125,2.335938,4.390625,-7.9375,7.492188,1.740234,0.521484,-2.181641
94450.0,-7.804688,-7.925781,4.941406,-16.1875,-8.660156,10.089844,1.990234,0.429688,-1.826172
94466.0,-19.261719,-8.617188,5.785156,-24.15625,-8.78125,9.792969,1.634766,-0.435547,-0.896484
94481.0,-15.738281,-7.773438,6.128906,-20.257812,-7.273438,10.390625,0.857422,-0.322266,-0.458984
94496.0,-1.5625,-10.296875,3.449219,-16.140625,-11.027344,9.089844,0.691406,0.005859,-0.054688
94519.0,5.488281,-6.625,4.023438,-2.886719,-7.21875,9.351562,0.785156,0.304688,0.210938
94536.0,8.125,-1.910156,1.914062,-3.617188,-5.214844,8.589844,-0.810547,0.085938,1.0625
94556.0,6.636719,-3.480469,1.1875,-2.054688,-5.296875,6.8125,-0.642578,0.318359,1.242188
94576.0,4.222656,-0.339844,-0.34375,-2.597656,-2.566406,5.492188,-0.642578,0.558594,1.269531
94597.0,-1.488281,1.230469,-1.1875,-8.636719,0.730469,4.335938,-0.785156,0.894531,1.289062
94618.0,-3.597656,2.457031,-1.148438,-11.480469,2.410156,3.648438,-1.158203,0.771484,1.275391
94636.0,-0.335938,1.347656,-0.269531,-9.445312,1.738281,4.238281,-0.970703,0.640625,1.291016
94659.0,-0.183594,0.691406,-0.382812,-8.964844,1.152344,4.28125,-0.779297,0.480469,1.265625
94676.0,-0.105469,-0.074219,-0.464844,-8.855469,0.933594,4.257812,0.101562,0.189453,1.033203
94699.0,-0.488281,0.691406,-1.226562,-9.246094,1.542969,3.351562,0.664062,-0.015625,0.853516
94716.0,-0.222656,0.847656,-1.414062,-9.117188,1.769531,3.230469,0.728516,-0.103516,0.783203
94739.0,0.085938,0.960938,-1.453125,-8.59375,2.21875,3.097656,0.701172,-0.064453,0.751953
94756.0,-0.027344,0.425781,-1.375,-8.691406,2.199219,3.121094,0.421875,-0.021484,0.710938
94786.0,-0.605469,-1.183594,-2.183594,-9.144531,0.828125,2.714844,0.800781,-0.271484,0.603516
94810.0,-1.292969,-1.296875,-4.171875,-9.753906,0.578125,0.363281,1.179688,-0.650391,0.591797
94826.0,-0.449219,-1.875,-5.742188,-9.386719,0.195312,-0.410156,1.650391,-1.068359,0.861328
94849.0,3.1875,-0.992188,-10.6875,-4.929688,1.460938,-5.960938,1.962891,-1.544922,1.259766
94866.0,9.28125,1.0,-15.859375,-1.914062,2.476562,-8.25,1.628906,-2.306641,1.388672
94891.0,20.386719,-0.1875,-27.429688,8.832031,3.839844,-18.597656,0.560547,-3.328125,1.431641
94906.0,25.445312,-1.949219,-34.4375,12.957031,2.976562,-22.148438,0.15625,-4.042969,1.617188
94926.0,28.125,-10.914062,-38.882812,19.035156,-2.910156,-33.5,0.042969,-3.998047,1.466797
94949.0,33.910156,-18.691406,-40.035156,28.269531,-14.894531,-33.179688,0.214844,-4.324219,1.302734
94965.0,26.25,-18.804688,-36.582031,24.582031,-14.476562,-31.996094,1.429688,-3.839844,0.714844
94990.0,22.726562,-13.941406,-25.664062,18.3125,-9.644531,-18.128906,1.429688,-3.769531,0.689453
95019.0,22.304688,0.273438,0.613281,18.601562,4.554688,8.628906,-0.810547,-2.583984,0.498047
95036.0,13.875,1.191406,10.113281,14.863281,5.507812,14.539062,-2.90625,0.363281,-0.384766
95058.0,0.8125,-8.230469,22.949219,-2.96875,-4.816406,31.429688,-2.802734,0.232422,-0.748047
95078.0,-0.988281,-10.109375,25.933594,-4.824219,-6.882812,34.472656,0.353516,0.845703,-1.533203
95106.0,3.074219,-4.746094,20.226562,-2.3125,-2.5625,31.210938,1.990234,2.775391,-2.158203
95130.0,7.25,-2.792969,11.339844,3.691406,0.964844,14.191406,1.167969,4.107422,-2.017578
95146.0,7.820312,-2.90625,0.917969,5.015625,1.507812,10.082031,-0.291016,5.359375,-0.560547
95163.0,11.578125,0.347656,-8.542969,1.714844,0.351562,8.035156,-1.970703,4.291016,-0.347656
95185.0,4.070312,-4.210938,-12.601562,-2.921875,0.113281,-6.042969,-3.005859,1.646484,0.121094
95248.0,-2.367188,4.714844,-10.070312,-10.304688,6.886719,-4.550781,-0.945312,1.621094,-0.201172
95265.0,-2.175781,3.566406,-8.394531,-10.414062,6.347656,-3.648438,-1.322266,1.042969,-0.173828
95280.0,-2.058594,2.875,-7.851562,-10.070312,4.46875,-1.859375,-1.275391,0.984375,-0.074219
95308.0,-1.21875,1.496094,-5.054688,-9.421875,3.261719,0.152344,-0.970703,0.195312,0.119141
95350.0,-0.335938,-2.523438,-1.53125,-8.460938,-0.804688,3.75,0.607422,-0.455078,-0.132812
95389.0,1.234375,-0.878906,0.269531,-6.757812,0.988281,5.613281,0.917969,-0.412109,-0.072266
95405.0,1.582031,-0.648438,0.652344,-6.457031,1.191406,5.8125,0.5625,-0.332031,0.095703
95428.0,0.621094,-1.183594,0.726562,-7.246094,0.847656,6.101562,0.482422,-0.310547,0.291016
95445.0,-0.335938,-0.457031,0.847656,-7.703125,1.007812,6.035156,0.591797,-0.369141,0.326172
95460.0,-0.71875,0.003906,0.726562,-8.921875,2.191406,5.742188,0.634766,-0.382812,0.310547
95475.0,2.191406,-1.296875,-1.265625,-8.691406,1.785156,5.097656,0.939453,-0.429688,0.246094
95498.0,14.066406,-2.140625,-7.433594,6.480469,0.28125,-2.035156,0.925781,-0.314453,-0.044922
95514.0,26.710938,-3.902344,-8.8125,12.640625,-0.445312,-3.535156,0.583984,-0.111328,-0.267578
95538.0,39.355469,-8.15625,-12.488281,31.789062,-5.65625,-7.191406,0.548828,0.236328,-0.277344
95554.0,34.253906,-7.007812,-14.289062,30.605469,-7.019531,-8.886719,2.587891,1.011719,-0.703125
95573.0,29.816406,-2.792969,-16.320312,22.054688,-0.113281,-11.40625,1.988281,0.429688,-0.755859
95608.0,16.367188,-0.339844,-17.929688,8.46875,2.308594,-13.1875,-0.845703,1.097656,0.332031
95625.0,14.949219,-1.335938,-15.78125,7.839844,2.199219,-12.207031,-2.425781,1.339844,0.433594
95639.0,13.570312,-2.101562,-14.597656,4.203125,-0.410156,-9.289062,-2.736328,0.865234,0.34375
95654.0,9.699219,-3.941406,-12.71875,2.984375,-1.199219,-8.8125,-2.390625,0.417969,0.080078
95678.0,5.449219,-6.046875,-9.730469,-2.730469,-3.984375,-5.035156,-1.978516,0.373047,-0.105469
95694.0,3.226562,-4.9375,-7.65625,-4.203125,-3.597656,-3.871094,0.398438,-0.46875,-0.359375
95719.0,2.347656,-2.140625,-5.824219,-5.824219,-0.15625,-0.996094,1.255859,-0.808594,-0.435547
95734.0,3.265625,-1.183594,-4.976562,-5.097656,0.417969,-0.519531,1.28125,-0.976562,-0.371094
95754.0,3.265625,-0.609375,-3.449219,-4.882812,1.316406,1.128906,1.009766,-1.060547,-0.292969
95774.0,3.265625,-0.839844,-2.835938,-4.671875,1.484375,2.066406,0.669922,-0.976562,-0.205078
95795.0,3.878906,-1.414062,-2.183594,-4.3125,0.835938,2.976562,0.457031,-0.917969,-0.121094
95808.0,4.339844,-1.296875,-2.105469,-3.460938,0.90625,3.308594,0.384766,-0.865234,-0.109375
95829.0,5.484375,-1.757812,-2.453125,-2.222656,0.460938,3.078125,0.322266,-0.796875,-0.105469
95857.0,7.054688,-2.640625,-2.335938,-0.542969,-0.382812,3.34375,0.373047,-0.736328,-0.089844
95874.0,8.054688,-2.753906,-2.335938,0.03125,-0.433594,3.398438,0.693359,-0.646484,-0.070312
95898.0,9.433594,-2.5625,-2.414062,1.980469,-0.179688,3.414062,0.855469,-0.589844,-0.089844
95914.0,10.195312,-2.449219,-2.796875,2.433594,0.019531,3.324219,0.873047,-0.435547,-0.148438
95938.0,10.316406,-2.753906,-3.179688,2.9375,-0.214844,2.6875,0.777344,-0.15625,-0.193359
95954.0,9.351562,-2.523438,-3.523438,2.554688,-0.191406,2.640625,0.626953,0.105469,-0.201172
95968.0,8.890625,-2.140625,-3.945312,1.039062,0.804688,1.4375,0.458984,0.207031,-0.199219
95984.0,7.398438,-1.757812,-4.867188,0.476562,0.964844,1.136719,0.044922,0.320312,-0.162109
96007.0,6.40625,-3.023438,-5.402344,-1.085938,-0.445312,0.308594,-0.160156,0.322266,-0.072266
96024.0,6.023438,-3.710938,-5.863281,-1.339844,-0.882812,0.054688,-0.068359,0.283203,-0.011719
96046.0,6.253906,-3.710938,-7.164062,-1.308594,-1.148438,-1.539062,0.021484,0.25,0.0
96077.0,7.019531,-3.214844,-8.011719,-0.558594,-0.636719,-2.414062,0.072266,0.091797,0.035156
96117.0,7.289062,-3.367188,-7.972656,-0.28125,-0.804688,-2.351562,-0.203125,-0.027344,0.076172
96133.0,6.980469,-3.636719,-8.007812,-0.4375,-0.964844,-2.34375,-0.248047,-0.121094,0.044922
96153.0,6.75,-3.867188,-7.929688,-0.726562,-1.320312,-2.34375,-0.121094,-0.203125,0.083984
96174.0,6.710938,-3.636719,-7.625,-0.8125,-1.289062,-2.074219,-0.070312,-0.300781,0.138672
96194.0,7.171875,-3.175781,-7.050781,-0.417969,-0.699219,-1.445312,-0.103516,-0.378906,0.210938
96227.0,7.480469,-3.175781,-6.28125,0.121094,-0.566406,-0.375,-0.125,-0.460938,0.335938
96244.0,7.742188,-3.0625,-5.785156,0.3125,-0.464844,-0.152344,-0.144531,-0.441406,0.376953
96258.0,7.820312,-2.90625,-5.476562,0.535156,-0.050781,0.765625,-0.142578,-0.417969,0.380859
96273.0,7.742188,-2.5625,-4.828125,0.574219,0.046875,1.027344,-0.164062,-0.359375,0.369141
96296.0,7.632812,-2.371094,-4.253906,0.507812,0.371094,1.886719,-0.191406,-0.330078,0.351562
96313.0,7.558594,-2.21875,-3.945312,0.5,0.457031,2.074219,-0.214844,-0.177734,0.330078
96337.0,7.78125,-2.140625,-3.714844,0.746094,0.640625,2.503906,-0.234375,-0.087891,0.302734
96353.0,8.058594,-2.179688,-3.292969,0.945312,0.640625,2.703125,-0.228516,0.017578,0.267578
96374.0,8.324219,-2.179688,-2.949219,1.183594,0.578125,3.253906,-0.181641,0.148438,0.203125
96393.0,8.398438,-2.21875,-2.910156,1.367188,0.664062,3.359375,-0.138672,0.308594,0.123047
96413.0,8.398438,-2.371094,-2.910156,1.375,0.472656,3.285156,-0.09375,0.474609,0.054688
96433.0,8.28125,-2.21875,-3.101562,1.304688,0.433594,3.253906,-0.087891,0.626953,0.009766
96454.0,8.015625,-1.988281,-3.753906,0.859375,0.6875,2.589844,-0.150391,0.730469,-0.005859
96477.0,7.824219,-2.101562,-4.710938,0.488281,0.65625,1.171875,-0.208984,0.777344,-0.005859
96493.0,7.78125,-2.179688,-5.898438,0.433594,0.601562,0.570312,-0.328125,0.853516,0.0
96517.0,7.515625,-2.714844,-7.355469,-0.023438,-0.035156,-1.699219,-0.349609,0.814453,-0.070312
96533.0,7.289062,-3.175781,-8.3125,-0.261719,-0.335938,-2.214844,-0.277344,0.708984,-0.169922
96564.0,6.867188,-3.445312,-9.382812,-0.546875,-0.851562,-3.53125,-0.037109,0.486328,-0.1875
96585.0,6.558594,-3.214844,-9.539062,-1.238281,-0.683594,-4.179688,0.017578,0.396484,-0.160156
96626.0,6.789062,-3.097656,-8.925781,-1.03125,-0.566406,-3.597656,0.027344,-0.125,0.107422
96643.0,6.828125,-2.945312,-8.5,-0.976562,-0.476562,-3.390625,-0.015625,-0.287109,0.203125
96659.0,6.941406,-2.832031,-8.3125,-0.738281,-0.253906,-2.730469,-0.0625,-0.359375,0.238281
96696.0,7.597656,-3.0625,-6.820312,-0.039062,-0.421875,-1.257812,-0.160156,-0.488281,0.304688
96713.0,7.742188,-3.097656,-6.320312,0.078125,-0.40625,-0.949219,-0.113281,-0.542969,0.333984
96736.0,7.820312,-2.90625,-5.632812,0.347656,-0.195312,0.109375,-0.101562,-0.556641,0.318359
96754.0,7.859375,-2.871094,-5.363281,0.386719,-0.136719,0.320312,-0.103516,-0.533203,0.316406
96767.0,7.859375,-2.871094,-5.210938,0.578125,-0.027344,0.824219,-0.109375,-0.511719,0.3125
96783.0,7.976562,-2.640625,-4.789062,0.65625,0.074219,0.980469,-0.140625,-0.460938,0.302734
96806.0,7.9375,-2.601562,-4.445312,0.726562,0.21875,1.59375,-0.173828,-0.408203,0.285156
96823.0,7.9375,-2.679688,-4.289062,0.757812,0.195312,1.742188,-0.15625,-0.337891,0.275391
96846.0,8.015625,-2.640625,-3.984375,0.914062,0.226562,2.179688,-0.117188,-0.257812,0.257812
96877.0,7.9375,-2.449219,-3.679688,0.890625,0.449219,2.570312,-0.066406,-0.130859,0.226562
96893.0,8.015625,-2.449219,-3.640625,0.945312,0.464844,2.617188,-0.039062,-0.035156,0.199219
96916.0,8.09375,-2.371094,-3.679688,1.078125,0.582031,2.53125,-0.037109,0.076172,0.164062
96932.0,8.015625,-2.332031,-3.792969,1.078125,0.628906,2.496094,-0.037109,0.181641,0.130859
96953.0,7.746094,-2.066406,-4.175781,0.832031,0.75,2.242188,-0.056641,0.279297,0.083984
96973.0,7.742188,-2.027344,-4.710938,0.699219,0.910156,1.988281,-0.144531,0.367188,0.029297
96992.0,7.4375,-2.066406,-5.632812,0.476562,0.894531,0.84375,-0.244141,0.435547,-0.03125
97013.0,7.132812,-2.101562,-6.550781,0.300781,0.878906,0.4375,-0.314453,0.474609,-0.082031
97032.0,6.867188,-1.949219,-7.929688,-0.328125,0.964844,-1.554688,-0.474609,0.449219,-0.128906
97056.0,6.75,-2.410156,-8.65625,-0.570312,0.339844,-2.710938,-0.558594,0.40625,-0.132812
97073.0,6.789062,-2.792969,-8.773438,-0.59375,0.109375,-2.757812,-0.550781,0.236328,-0.085938
97105.0,6.980469,-3.175781,-8.355469,-0.417969,-0.597656,-2.414062,-0.457031,0.166016,-0.076172
97127.0,7.058594,-2.90625,-8.160156,-0.332031,-0.199219,-2.097656,0.064453,-0.148438,-0.068359
97143.0,7.097656,-2.484375,-7.777344,-0.324219,-0.046875,-1.96875,0.162109,-0.255859,-0.039062
97165.0,7.175781,-2.371094,-7.125,-0.164062,0.207031,-1.117188,0.162109,-0.283203,-0.025391
97206.0,7.59375,-2.449219,-6.089844,0.328125,0.144531,0.011719,-0.015625,-0.332031,-0.005859
97222.0,7.671875,-2.523438,-5.515625,0.429688,0.0625,0.300781,-0.052734,-0.300781,-0.001953
97245.0,7.820312,-2.640625,-5.058594,0.628906,-0.070312,1.144531,-0.060547,-0.259766,-0.019531
97262.0,8.09375,-2.871094,-4.710938,0.757812,-0.183594,1.316406,0.035156,-0.216797,-0.041016
97277.0,8.09375,-2.90625,-4.480469,0.898438,-0.335938,2.035156,0.126953,-0.183594,-0.050781
97293.0,8.015625,-2.5625,-3.792969,0.867188,-0.253906,2.3125,0.292969,-0.111328,-0.083984
97316.0,8.058594,-1.71875,-3.523438,0.914062,0.890625,2.726562,0.265625,-0.025391,-0.142578
97332.0,8.058594,-1.605469,-3.410156,0.914062,1.003906,2.765625,0.136719,0.109375,-0.173828
97352.0,8.285156,-1.875,-3.179688,0.996094,0.917969,2.960938,0.023438,0.273438,-0.205078
97372.0,8.507812,-2.027344,-3.257812,1.1875,0.589844,2.960938,-0.003906,0.396484,-0.257812
97386.0,8.507812,-1.988281,-3.257812,1.230469,0.582031,2.898438,0.009766,0.451172,-0.291016
97402.0,8.398438,-1.796875,-3.140625,1.15625,0.640625,2.898438,0.072266,0.587891,-0.337891
97425.0,8.207031,-1.875,-3.679688,0.746094,0.570312,2.25,0.111328,0.666016,-0.359375
97455.0,8.507812,-2.292969,-4.0625,0.894531,0.082031,1.6875,0.132812,0.748047,-0.388672
97472.0,8.664062,-2.332031,-4.136719,0.878906,0.019531,1.574219,0.226562,0.863281,-0.445312
97485.0,8.746094,-2.332031,-4.175781,0.945312,-0.027344,1.347656,0.263672,0.900391,-0.464844
97511.0,9.050781,-2.410156,-4.480469,1.050781,-0.144531,0.953125,0.337891,0.986328,-0.492188
97535.0,9.285156,-2.371094,-4.367188,1.164062,-0.175781,0.710938,0.3125,1.039062,-0.509766
97552.0,9.351562,-2.601562,-4.597656,1.09375,-0.320312,0.578125,0.337891,1.072266,-0.496094
97566.0,9.390625,-2.5625,-4.828125,0.96875,-0.175781,-0.34375,0.328125,1.087891,-0.492188
97581.0,9.007812,-1.566406,-5.863281,0.742188,0.210938,-0.867188,0.179688,1.054688,-0.498047
97605.0,8.511719,-1.527344,-6.320312,-0.042969,0.449219,-1.914062,-0.005859,0.994141,-0.478516
97621.0,8.207031,-1.644531,-7.011719,-0.289062,0.363281,-2.382812,-0.138672,0.921875,-0.474609
97644.0,7.824219,-1.605469,-7.777344,-0.925781,0.175781,-3.691406,-0.195312,0.820312,-0.476562
97675.0,7.480469,-1.296875,-8.539062,-1.386719,0.328125,-4.636719,-0.302734,0.638672,-0.498047
97691.0,7.402344,-1.261719,-8.621094,-1.457031,0.273438,-4.683594,-0.384766,0.482422,-0.480469
97715.0,7.554688,-1.453125,-8.621094,-1.414062,-0.0625,-4.855469,-0.429688,0.269531,-0.429688
97731.0,7.515625,-1.683594,-8.464844,-1.429688,-0.230469,-4.746094,-0.376953,0.033203,-0.392578
97751.0,7.707031,-2.066406,-7.773438,-1.367188,-0.675781,-4.242188,-0.226562,-0.1875,-0.353516
97771.0,7.9375,-2.179688,-7.316406,-1.207031,-1.023438,-3.742188,-0.027344,-0.367188,-0.328125
97791.0,8.125,-1.875,-6.703125,-0.914062,-0.933594,-2.9375,0.105469,-0.505859,-0.302734
97821.0,8.398438,-1.492188,-5.824219,-0.554688,-0.621094,-2.023438,0.03125,-0.628906,-0.240234
97841.0,8.550781,-1.414062,-5.441406,-0.429688,-0.421875,-1.484375,-0.158203,-0.660156,-0.167969
97856.0,8.589844,-1.492188,-5.25,-0.144531,-0.621094,-0.8125,-0.253906,-0.666016,-0.128906
97872.0,8.746094,-1.875,-4.789062,-0.039062,-0.796875,-0.589844,-0.386719,-0.654297,-0.054688
97895.0,8.703125,-2.21875,-4.214844,0.007812,-1.359375,0.324219,-0.423828,-0.646484,-0.027344
97912.0,8.625,-2.371094,-3.945312,0.003906,-1.457031,0.539062,-0.390625,-0.607422,0.066406
97926.0,8.546875,-2.410156,-3.90625,-0.050781,-1.628906,0.886719,-0.361328,-0.59375,0.091797
97941.0,8.511719,-2.523438,-3.753906,-0.027344,-1.636719,0.980469,-0.279297,-0.566406,0.158203
97966.0,8.746094,-2.832031,-3.984375,0.257812,-2.003906,0.945312,-0.162109,-0.568359,0.240234
97981.0,9.128906,-2.945312,-4.023438,0.488281,-2.027344,0.921875,-0.001953,-0.554688,0.322266
98004.0,9.085938,-3.136719,-3.714844,0.726562,-2.191406,1.410156,0.117188,-0.529297,0.363281
98021.0,8.929688,-3.136719,-3.484375,0.683594,-2.175781,1.523438,0.662109,-0.425781,0.474609
98061.0,8.480469,-2.984375,-3.066406,0.371094,-1.710938,2.117188,1.515625,-0.205078,0.480469
98075.0,8.324219,-2.871094,-2.988281,0.171875,-1.160156,2.339844,1.736328,-0.140625,0.46875
98091.0,8.402344,-2.292969,-2.566406,0.371094,-0.867188,2.507812,2.070312,0.033203,0.412109
98114.0,8.507812,-1.527344,-2.144531,0.347656,0.644531,2.941406,2.123047,0.220703,0.349609
98131.0,8.785156,-0.914062,-1.839844,0.503906,1.082031,2.984375,1.775391,0.398438,0.314453
98145.0,8.863281,-0.722656,-1.800781,0.746094,1.800781,3.179688,1.439453,0.486328,0.328125
98161.0,9.007812,-0.914062,-1.609375,0.761719,1.902344,3.179688,0.587891,0.650391,0.433594
98178.0,9.085938,-1.335938,-1.53125,0.785156,1.773438,3.109375,0.115234,0.724609,0.501953
98194.0,9.429688,-2.257812,-1.722656,1.144531,0.5625,2.800781,-0.345703,0.792969,0.574219
98224.0,9.96875,-3.136719,-3.027344,1.625,-0.308594,1.371094,-1.845703,0.929688,0.84375
98241.0,9.777344,-3.136719,-3.332031,1.496094,-0.316406,1.195312,-2.09375,0.863281,0.90625
98260.0,9.167969,-2.945312,-3.679688,0.964844,-0.234375,0.773438,-1.847656,0.804688,0.925781
98281.0,8.859375,-2.832031,-3.871094,0.773438,-0.15625,0.640625,-1.285156,0.800781,0.894531
98301.0,8.667969,-2.832031,-4.023438,0.246094,0.003906,0.164062,-0.601562,0.835938,0.826172
98318.0,8.890625,-2.714844,-4.40625,0.230469,0.050781,0.15625,-0.298828,0.855469,0.791016
98333.0,9.007812,-2.601562,-4.636719,0.609375,0.570312,-0.890625,-0.072266,0.871094,0.755859
98350.0,9.085938,-2.371094,-5.171875,0.640625,0.675781,-1.167969,0.109375,0.900391,0.703125
98370.0,9.007812,-1.796875,-5.210938,0.503906,1.222656,-1.484375,-0.109375,0.921875,0.705078
98381.0,8.972656,-1.566406,-5.324219,0.488281,1.515625,-1.5625,-0.304688,0.927734,0.710938
98403.0,8.703125,-1.105469,-5.976562,0.148438,2.347656,-2.53125,-0.546875,0.9375,0.730469
98420.0,8.4375,-0.839844,-6.359375,-0.011719,2.53125,-2.839844,-1.369141,0.871094,0.763672
98444.0,8.242188,-1.070312,-6.320312,-0.316406,2.460938,-2.976562,-1.783203,0.798828,0.771484
98461.0,8.28125,-1.296875,-6.128906,-0.394531,2.308594,-2.871094,-1.984375,0.671875,0.714844
98490.0,8.324219,-2.140625,-5.402344,-0.261719,1.597656,-2.210938,-1.841797,0.445312,0.490234
98514.0,8.363281,-2.332031,-4.867188,-0.195312,1.097656,-1.40625,-1.507812,0.296875,0.263672
98530.0,8.324219,-2.257812,-4.597656,-0.195312,1.066406,-1.183594,-1.119141,0.140625,0.003906
98550.0,8.480469,-1.835938,-4.480469,-0.171875,1.363281,-0.925781,-0.753906,-0.009766,-0.230469
98590.0,8.703125,-2.21875,-4.253906,0.035156,1.042969,-0.640625,-0.025391,-0.248047,-0.541016
98601.0,8.703125,-2.332031,-4.253906,0.101562,0.84375,-0.582031,0.144531,-0.296875,-0.603516
98623.0,8.664062,-2.601562,-4.097656,0.042969,0.320312,-0.355469,0.457031,-0.390625,-0.712891
98641.0,8.746094,-2.792969,-4.023438,0.109375,0.160156,-0.296875,0.730469,-0.443359,-0.773438
98655.0,8.78125,-2.90625,-4.023438,0.179688,-0.148438,-0.179688,0.839844,-0.462891,-0.787109
98670.0,8.894531,-2.984375,-3.984375,0.21875,-0.1875,-0.164062,1.021484,-0.472656,-0.792969
98683.0,8.859375,-3.023438,-3.984375,0.203125,-0.328125,-0.132812,1.087891,-0.480469,-0.787109
98710.0,9.011719,-3.023438,-3.945312,0.316406,-0.414062,-0.109375,1.214844,-0.486328,-0.732422
98733.0,8.929688,-2.984375,-3.714844,0.277344,-0.382812,0.199219,1.226562,-0.484375,-0.699219
98750.0,8.929688,-2.945312,-3.523438,0.277344,-0.398438,0.320312,1.158203,-0.460938,-0.589844
98770.0,8.929688,-2.984375,-3.292969,0.285156,-0.367188,0.613281,1.050781,-0.423828,-0.515625
98790.0,9.011719,-2.90625,-3.257812,0.363281,-0.382812,0.710938,0.904297,-0.371094,-0.433594
98810.0,8.894531,-2.945312,-3.101562,0.292969,-0.34375,0.84375,0.738281,-0.308594,-0.353516
98842.0,8.742188,-3.023438,-3.066406,0.117188,-0.476562,0.957031,0.455078,-0.216797,-0.261719
98862.0,8.625,-3.097656,-3.027344,0.011719,-0.566406,1.011719,0.365234,-0.191406,-0.236328
98880.0,8.589844,-3.175781,-3.21875,-0.027344,-0.652344,0.980469,0.136719,-0.125,-0.160156
98900.0,8.507812,-3.214844,-3.292969,-0.066406,-0.667969,0.804688,0.078125,-0.109375,-0.103516
98919.0,8.402344,-3.40625,-3.257812,-0.171875,-0.867188,0.785156,0.140625,-0.107422,-0.066406
98944.0,8.28125,-3.40625,-3.179688,-0.324219,-0.90625,0.898438,0.191406,-0.099609,-0.052734
98960.0,8.246094,-3.40625,-3.292969,-0.363281,-0.890625,0.90625,0.396484,-0.085938,-0.03125
98983.0,8.285156,-3.367188,-3.5625,-0.316406,-0.804688,0.507812,0.507812,-0.083984,-0.005859
99000.0,8.324219,-3.367188,-3.640625,-0.316406,-0.75,0.429688,0.570312,-0.083984,0.021484
99023.0,8.363281,-3.367188,-3.714844,-0.226562,-0.703125,0.324219,0.589844,-0.087891,0.042969
99040.0,8.324219,-3.40625,-3.679688,-0.21875,-0.671875,0.316406,0.603516,-0.074219,0.064453
99054.0,8.359375,-3.367188,-3.679688,-0.25,-0.578125,0.375,0.597656,-0.064453,0.074219
99069.0,8.363281,-3.289062,-3.714844,-0.242188,-0.546875,0.320312,0.558594,-0.029297,0.105469
99096.0,8.363281,-3.253906,-4.023438,-0.195312,-0.378906,-0.0625,0.525391,-0.011719,0.123047
99133.0,8.320312,-3.367188,-4.253906,-0.203125,-0.367188,-0.347656,0.353516,-0.005859,0.199219
99150.0,8.363281,-3.40625,-4.214844,-0.164062,-0.328125,-0.355469,0.326172,0.005859,0.203125
99164.0,8.398438,-3.445312,-4.253906,-0.109375,-0.351562,-0.378906,0.314453,0.007812,0.201172
99180.0,8.402344,-3.445312,-4.289062,-0.101562,-0.3125,-0.429688,0.292969,0.017578,0.197266
99203.0,8.398438,-3.367188,-4.40625,-0.085938,-0.15625,-0.570312,0.232422,0.023438,0.208984
99220.0,8.4375,-3.367188,-4.480469,-0.039062,-0.132812,-0.585938,0.144531,0.021484,0.226562
99234.0,8.441406,-3.40625,-4.519531,0.015625,-0.117188,-0.746094,0.097656,0.015625,0.234375
99249.0,8.476562,-3.40625,-4.597656,0.050781,-0.09375,-0.792969,0.011719,0.0,0.273438
99273.0,8.480469,-3.367188,-4.519531,0.054688,0.023438,-0.707031,-0.048828,-0.021484,0.304688
99289.0,8.476562,-3.367188,-4.445312,0.03125,0.046875,-0.667969,-0.070312,-0.023438,0.330078
99313.0,8.507812,-3.328125,-4.367188,0.136719,0.164062,-0.539062,-0.060547,-0.027344,0.337891
99330.0,8.507812,-3.328125,-4.328125,0.183594,0.195312,-0.492188,-0.052734,-0.041016,0.332031
99350.0,8.511719,-3.328125,-4.253906,0.175781,0.242188,-0.445312,-0.0625,-0.0625,0.314453
99369.0,8.476562,-3.289062,-4.214844,0.191406,0.265625,-0.402344,-0.09375,-0.072266,0.296875
99388.0,8.507812,-3.253906,-4.136719,0.230469,0.410156,-0.253906,-0.107422,-0.080078,0.287109
99422.0,8.507812,-3.253906,-3.945312,0.285156,0.480469,-0.015625,-0.128906,-0.068359,0.238281
99439.0,8.441406,-3.253906,-3.871094,0.257812,0.496094,0.066406,-0.115234,-0.058594,0.205078
99454.0,8.398438,-3.253906,-3.792969,0.203125,0.519531,0.199219,-0.111328,-0.050781,0.189453
99468.0,8.398438,-3.253906,-3.753906,0.210938,0.527344,0.207031,-0.115234,-0.035156,0.154297
99493.0,8.511719,-3.289062,-3.714844,0.339844,0.515625,0.269531,-0.134766,-0.029297,0.121094
99509.0,8.585938,-3.328125,-3.640625,0.386719,0.515625,0.3125,-0.142578,-0.023438,0.080078
99533.0,8.785156,-3.367188,-3.5625,0.632812,0.4375,0.453125,-0.148438,-0.009766,0.039062
99563.0,8.78125,-3.480469,-3.5625,0.546875,0.300781,0.515625,-0.101562,-0.005859,-0.029297
99578.0,8.511719,-3.480469,-3.449219,0.472656,0.300781,0.515625,-0.046875,-0.001953,-0.058594
99603.0,8.207031,-3.40625,-3.332031,0.042969,0.351562,0.707031,0.015625,0.013672,-0.072266
99619.0,8.128906,-3.367188,-3.292969,0.003906,0.351562,0.667969,0.054688,0.035156,-0.070312
99634.0,8.09375,-3.367188,-3.292969,-0.078125,0.382812,0.738281,0.066406,0.046875,-0.070312
99678.0,8.203125,-3.445312,-3.371094,0.011719,0.289062,0.660156,0.044922,0.074219,-0.074219
99699.0,8.242188,-3.480469,-3.410156,0.003906,0.28125,0.613281,0.056641,0.080078,-0.087891
99712.0,8.242188,-3.480469,-3.410156,-0.011719,0.230469,0.550781,0.068359,0.076172,-0.09375
99729.0,8.164062,-3.480469,-3.410156,-0.027344,0.191406,0.542969,0.117188,0.085938,-0.097656
99743.0,8.164062,-3.445312,-3.410156,0.042969,0.296875,0.519531,0.134766,0.095703,-0.101562
99781.0,8.78125,-3.445312,-3.792969,0.5,0.242188,0.082031,0.126953,0.115234,-0.089844
99821.0,8.785156,-3.519531,-3.871094,0.46875,0.144531,-0.050781,0.140625,0.074219,-0.121094
99839.0,8.664062,-3.480469,-3.792969,0.382812,0.144531,-0.066406,0.193359,0.070312,-0.148438
99853.0,8.625,-3.445312,-3.792969,0.292969,0.242188,-0.011719,0.216797,0.080078,-0.160156
99869.0,8.703125,-3.328125,-3.90625,0.285156,0.28125,-0.066406,0.222656,0.103516,-0.171875
99909.0,8.667969,-3.367188,-4.097656,0.3125,0.210938,-0.367188,0.041016,0.107422,-0.177734
99923.0,8.589844,-3.40625,-4.136719,0.136719,0.179688,-0.457031,-0.009766,0.105469,-0.183594
99963.0,8.167969,-3.40625,-4.0625,-0.285156,0.09375,-0.414062,-0.113281,0.111328,-0.173828
99979.0,8.164062,-3.40625,-4.023438,-0.300781,0.078125,-0.421875,-0.126953,0.113281,-0.169922
100000.0,8.246094,-3.445312,-4.023438,-0.246094,-0.015625,-0.398438,-0.132812,0.109375,-0.173828
100041.0,8.398438,-3.558594,-4.023438,-0.132812,-0.222656,-0.390625,-0.144531,0.041016,-0.207031
100058.0,8.4375,-3.636719,-4.023438,-0.140625,-0.292969,-0.390625,-0.132812,0.019531,-0.228516
100078.0,8.511719,-3.671875,-3.984375,-0.078125,-0.371094,-0.304688,-0.126953,0.013672,-0.244141
100099.0,8.511719,-3.671875,-3.984375,-0.050781,-0.4375,-0.34375,-0.128906,0.007812,-0.242188
100118.0,8.511719,-3.671875,-3.90625,-0.074219,-0.546875,-0.296875,-0.152344,0.009766,-0.212891
100143.0,8.441406,-3.636719,-3.832031,-0.171875,-0.542969,-0.167969,-0.183594,0.005859,-0.162109
100180.0,8.441406,-3.710938,-3.679688,-0.1875,-0.679688,0.007812,-0.207031,-0.007812,-0.064453
100221.0,8.476562,-3.671875,-3.679688,-0.140625,-0.65625,0.039062,-0.128906,-0.039062,0.0625
100238.0,8.480469,-3.671875,-3.601562,-0.140625,-0.65625,0.085938,-0.078125,-0.044922,0.09375
100252.0,8.507812,-3.636719,-3.601562,-0.097656,-0.574219,0.171875,-0.0625,-0.048828,0.111328
100267.0,8.550781,-3.558594,-3.523438,-0.089844,-0.527344,0.21875,-0.033203,-0.046875,0.132812
100291.0,8.550781,-3.519531,-3.523438,-0.035156,-0.457031,0.234375,-0.029297,-0.046875,0.138672
100307.0,8.507812,-3.480469,-3.5625,-0.027344,-0.441406,0.242188,-0.029297,-0.042969,0.167969
100331.0,8.511719,-3.480469,-3.484375,-0.050781,-0.363281,0.296875,-0.03125,-0.039062,0.173828
100347.0,8.511719,-3.445312,-3.449219,-0.042969,-0.3125,0.296875,-0.021484,-0.023438,0.177734
100367.0,8.511719,-3.40625,-3.410156,-0.027344,-0.242188,0.378906,-0.009766,-0.005859,0.179688
100388.0,8.507812,-3.40625,-3.449219,-0.003906,-0.210938,0.378906,-0.007812,0.013672,0.181641
100408.0,8.550781,-3.289062,-3.523438,0.042969,-0.101562,0.339844,-0.029297,0.025391,0.183594
100441.0,8.550781,-3.328125,-3.484375,0.050781,-0.039062,0.296875,-0.048828,0.052734,0.181641
100458.0,8.507812,-3.289062,-3.523438,0.058594,-0.023438,0.257812,-0.056641,0.070312,0.171875
100477.0,8.550781,-3.289062,-3.640625,0.066406,0.039062,0.171875,-0.056641,0.085938,0.158203
100498.0,8.546875,-3.253906,-3.640625,0.066406,0.054688,0.125,-0.064453,0.099609,0.148438
100517.0,8.550781,-3.253906,-3.714844,0.074219,0.121094,0.070312,-0.076172,0.103516,0.138672
100542.0,8.550781,-3.253906,-3.753906,0.074219,0.144531,-0.035156,-0.082031,0.105469,0.138672
100558.0,8.550781,-3.214844,-3.792969,0.074219,0.152344,-0.074219,-0.082031,0.097656,0.130859
100581.0,8.507812,-3.214844,-3.792969,-0.019531,0.207031,-0.246094,-0.072266,0.089844,0.123047
100597.0,8.550781,-3.214844,-3.832031,0.019531,0.214844,-0.285156,-0.056641,0.085938,0.111328
100621.0,8.546875,-3.214844,-3.90625,0.027344,0.222656,-0.359375,-0.041016,0.076172,0.089844
100638.0,8.550781,-3.175781,-3.90625,0.019531,0.253906,-0.398438,-0.042969,0.066406,0.072266
100652.0,8.511719,-3.175781,-3.945312,-0.054688,0.292969,-0.421875,-0.044922,0.058594,0.0625
100667.0,8.480469,-3.175781,-3.90625,-0.046875,0.253906,-0.335938,-0.042969,0.046875,0.041016
100690.0,8.4375,-3.136719,-3.90625,-0.09375,0.269531,-0.3125,-0.039062,0.042969,0.029297
100722.0,8.441406,-3.175781,-3.90625,-0.09375,0.199219,-0.28125,-0.021484,0.023438,-0.011719
100737.0,8.441406,-3.136719,-3.945312,-0.085938,0.191406,-0.3125,-0.037109,0.003906,-0.052734
100761.0,8.441406,-3.253906,-3.871094,-0.085938,0.074219,-0.207031,-0.044922,0.0,-0.0625
100777.0,8.441406,-3.253906,-3.832031,-0.085938,0.058594,-0.207031,-0.041016,-0.011719,-0.085938
100800.0,8.4375,-3.289062,-3.832031,-0.101562,-0.007812,-0.152344,-0.039062,-0.023438,-0.105469
100817.0,8.476562,-3.328125,-3.832031,-0.0625,-0.015625,-0.152344,-0.037109,-0.03125,-0.117188
100840.0,8.511719,-3.367188,-3.792969,-0.035156,-0.125,-0.089844,-0.03125,-0.041016,-0.128906
100857.0,8.476562,-3.367188,-3.753906,-0.070312,-0.140625,-0.089844,-0.019531,-0.046875,-0.136719
100887.0,8.507812,-3.40625,-3.679688,-0.042969,-0.226562,0.039062,-0.007812,-0.044922,-0.140625
100910.0,8.550781,-3.40625,-3.679688,-0.003906,-0.257812,0.0625,-0.019531,-0.037109,-0.134766
100927.0,8.550781,-3.40625,-3.679688,-0.011719,-0.273438,0.027344,-0.037109,-0.03125,-0.121094
100947.0,8.511719,-3.445312,-3.640625,-0.058594,-0.335938,0.070312,-0.058594,-0.021484,-0.111328
100967.0,8.511719,-3.445312,-3.640625,-0.058594,-0.34375,0.117188,-0.074219,-0.011719,-0.103516
100987.0,8.507812,-3.445312,-3.601562,-0.066406,-0.417969,0.171875,-0.078125,-0.001953,-0.091797
101017.0,8.480469,-3.519531,-3.640625,-0.074219,-0.449219,0.140625,-0.074219,0.001953,-0.082031
101037.0,8.441406,-3.558594,-3.679688,-0.109375,-0.550781,0.109375,-0.078125,0.005859,-0.082031
101051.0,8.441406,-3.597656,-3.714844,-0.195312,-0.644531,0.035156,-0.078125,0.001953,-0.083984
101129.0,8.476562,-3.75,-3.945312,0.007812,-0.328125,-0.1875,-0.001953,-0.056641,0.007812
101167.0,8.628906,-3.636719,-3.679688,0.144531,-0.25,0.027344,0.097656,-0.126953,0.208984
101187.0,8.824219,-3.597656,-3.601562,0.199219,-0.152344,0.117188,0.166016,-0.113281,0.289062
101206.0,8.894531,-3.480469,-3.753906,0.542969,0.058594,0.089844,0.210938,-0.117188,0.347656
101230.0,8.820312,-3.367188,-3.601562,0.484375,0.320312,0.210938,0.214844,-0.109375,0.359375
101247.0,8.742188,-3.289062,-3.523438,0.5,0.398438,0.289062,0.171875,-0.039062,0.351562
101269.0,8.480469,-3.175781,-3.449219,0.195312,0.652344,0.355469,0.144531,-0.009766,0.326172
101280.0,8.402344,-3.0625,-3.484375,0.125,0.796875,0.304688,0.087891,0.052734,0.244141
101309.0,8.019531,-2.679688,-3.410156,-0.25,1.210938,0.363281,-0.052734,0.123047,0.132812
101326.0,7.902344,-2.90625,-3.523438,-0.289062,1.136719,0.316406,-0.273438,0.183594,-0.005859
101346.0,7.902344,-3.40625,-3.640625,-0.382812,0.578125,-0.003906,-0.294922,0.173828,-0.09375
101367.0,7.980469,-3.519531,-3.714844,-0.40625,0.355469,0.070312,-0.232422,0.140625,-0.1875
101386.0,8.167969,-3.40625,-3.753906,-0.234375,0.335938,0.027344,-0.146484,0.109375,-0.244141
101406.0,8.363281,-3.367188,-3.792969,-0.175781,0.351562,-0.019531,-0.105469,0.097656,-0.259766
101426.0,8.625,-3.480469,-3.792969,0.167969,0.234375,-0.066406,-0.082031,0.095703,-0.236328
101450.0,8.820312,-3.519531,-3.832031,0.40625,0.097656,-0.121094,-0.083984,0.091797,-0.212891
101467.0,8.863281,-3.558594,-3.792969,0.429688,0.035156,-0.082031,-0.089844,0.070312,-0.113281
101489.0,8.859375,-3.480469,-3.714844,0.414062,0.082031,-0.011719,-0.087891,0.068359,-0.070312
101521.0,8.703125,-3.40625,-3.640625,0.25,0.15625,0.046875,-0.048828,0.056641,0.095703
101546.0,8.589844,-3.328125,-3.5625,0.222656,0.210938,0.15625,0.019531,0.052734,0.166016
101568.0,8.546875,-3.253906,-3.484375,0.074219,0.355469,0.1875,0.019531,0.054688,0.189453
101586.0,8.507812,-3.289062,-3.523438,0.082031,0.386719,0.214844,0.009766,0.056641,0.191406
101605.0,8.511719,-3.328125,-3.601562,0.089844,0.34375,0.046875,-0.009766,0.058594,0.166016
101616.0,8.511719,-3.289062,-3.5625,0.097656,0.359375,0.046875,-0.017578,0.060547,0.148438
101639.0,8.511719,-3.253906,-3.449219,0.097656,0.457031,0.183594,-0.050781,0.085938,0.113281
101669.0,8.585938,-3.480469,-3.5625,0.175781,0.253906,0.0625,-0.089844,0.095703,0.109375
101685.0,8.628906,-3.828125,-3.714844,0.183594,0.070312,-0.023438,-0.072266,0.074219,0.152344
101709.0,8.746094,-3.902344,-3.601562,0.34375,-0.128906,0.0,-0.099609,0.052734,0.216797
101726.0,8.824219,-4.171875,-3.601562,0.390625,-0.230469,0.039062,-0.181641,0.017578,0.347656
101746.0,8.933594,-4.632812,-3.640625,0.527344,-0.640625,0.09375,-0.210938,0.009766,0.542969
101765.0,8.933594,-5.167969,-4.023438,0.605469,-1.039062,-0.082031,-0.087891,-0.037109,0.785156
101779.0,8.96875,-5.511719,-4.289062,0.746094,-1.832031,-0.871094,0.056641,-0.083984,0.90625
101819.0,9.585938,-6.777344,-5.515625,1.539062,-2.300781,-1.875,0.861328,-0.388672,1.359375
101836.0,9.585938,-6.816406,-5.25,1.703125,-2.113281,-1.738281,1.146484,-0.521484,1.634766
101850.0,9.511719,-6.96875,-5.210938,1.699219,-2.3125,-1.683594,1.310547,-0.574219,1.789062
101866.0,9.507812,-7.429688,-5.632812,1.808594,-2.195312,-1.824219,1.583984,-0.662109,2.029297
101888.0,9.664062,-9.152344,-5.824219,2.40625,-3.347656,-2.371094,1.726562,-0.697266,2.134766
101908.0,9.664062,-9.875,-5.476562,2.578125,-3.832031,-2.09375,2.867188,-0.734375,2.40625
101929.0,9.890625,-10.574219,-4.253906,3.320312,-3.726562,-1.316406,3.695312,-0.646484,2.537109
101946.0,9.433594,-9.808594,-3.292969,3.332031,-3.082031,-0.898438,3.908203,-0.496094,2.712891
101959.0,9.085938,-9.53125,-3.449219,3.019531,-1.496094,-1.199219,3.861328,-0.455078,2.783203
101999.0,6.40625,-7.195312,-2.414062,1.40625,1.355469,-1.304688,3.144531,0.076172,3.013672
102016.0,5.332031,-6.550781,-1.417969,1.136719,1.972656,-1.164062,2.427734,0.339844,2.976562
102038.0,3.726562,-5.320312,-0.460938,-0.226562,3.859375,-0.273438,1.607422,0.503906,2.804688
102058.0,3.074219,-5.398438,-0.117188,-0.402344,3.984375,-0.1875,1.189453,0.576172,2.701172
102076.0,2.421875,-5.203125,0.269531,-0.542969,4.070312,0.113281,0.199219,0.642578,2.339844
102095.0,2.269531,-5.4375,0.34375,-0.480469,4.371094,0.078125,-0.199219,0.5625,2.089844
102116.0,1.960938,-5.546875,0.460938,-0.304688,4.214844,0.164062,-0.306641,0.503906,1.808594
102140.0,1.886719,-5.851562,0.34375,-0.035156,3.832031,0.226562,-0.28125,0.445312,1.509766
102161.0,1.847656,-6.355469,0.304688,0.230469,3.535156,0.179688,-0.199219,0.380859,1.195312
102180.0,1.847656,-6.433594,0.152344,0.402344,3.261719,0.167969,-0.138672,0.34375,0.90625
102218.0,1.808594,-7.039062,0.496094,0.652344,2.902344,0.410156,-0.060547,0.279297,0.527344
102235.0,1.769531,-7.15625,0.460938,0.691406,2.902344,0.457031,-0.070312,0.207031,0.183594
102250.0,1.808594,-7.433594,0.421875,0.875,2.132812,0.273438,-0.03125,0.210938,0.089844
102289.0,2.804688,-9.769531,0.113281,1.6875,0.164062,0.019531,0.027344,0.193359,-0.183594
102304.0,3.226562,-10.375,0.269531,1.941406,-0.21875,0.136719,-0.068359,0.185547,-0.166016
102328.0,3.304688,-10.574219,0.304688,2.117188,-0.648438,0.242188,-0.220703,0.183594,-0.070312
102345.0,3.074219,-10.640625,0.113281,2.03125,-0.730469,0.191406,-0.283203,0.169922,0.056641
102365.0,2.652344,-10.757812,0.0,1.617188,-0.921875,0.0,-0.171875,0.195312,0.097656
102385.0,2.269531,-10.191406,-0.039062,1.28125,-0.625,0.03125,0.035156,0.126953,0.039062
102405.0,1.808594,-9.496094,-0.230469,0.789062,0.179688,-0.167969,0.214844,0.041016,-0.019531
102425.0,1.695312,-9.113281,-0.308594,0.582031,0.554688,-0.285156,0.242188,-0.001953,-0.072266
102444.0,1.542969,-8.84375,-0.269531,0.367188,1.046875,-0.371094,0.125,-0.046875,-0.097656
102468.0,1.464844,-9.191406,-0.191406,0.214844,0.691406,-0.277344,0.074219,-0.0625,-0.113281
102484.0,1.464844,-9.496094,-0.078125,0.199219,0.53125,-0.210938,0.015625,-0.072266,-0.195312
102508.0,1.578125,-9.691406,-0.117188,0.234375,0.171875,-0.210938,0.056641,-0.083984,-0.230469
102525.0,1.65625,-9.765625,-0.078125,0.25,0.210938,-0.21875,0.048828,-0.09375,-0.238281
102548.0,1.808594,-9.914062,-0.117188,0.371094,-0.074219,-0.226562,0.013672,-0.109375,-0.208984
102564.0,1.886719,-10.113281,-0.078125,0.425781,-0.152344,-0.21875,-0.023438,-0.125,-0.150391
102585.0,1.886719,-10.261719,-0.078125,0.433594,-0.359375,-0.132812,-0.042969,-0.160156,-0.085938
102618.0,1.808594,-10.191406,-0.152344,0.277344,-0.367188,-0.222656,-0.019531,-0.1875,-0.023438
102635.0,1.769531,-10.148438,-0.152344,0.230469,-0.289062,-0.222656,-0.003906,-0.212891,0.017578
102649.0,1.769531,-10.109375,-0.152344,0.230469,-0.175781,-0.246094,-0.005859,-0.226562,0.035156
102665.0,1.734375,-9.878906,-0.230469,0.230469,-0.105469,-0.246094,-0.021484,-0.263672,0.078125
102687.0,1.695312,-9.765625,-0.191406,0.179688,0.046875,-0.230469,-0.029297,-0.287109,0.097656
102704.0,1.65625,-9.726562,-0.191406,0.140625,0.054688,-0.214844,-0.019531,-0.335938,0.113281
102728.0,1.695312,-9.652344,-0.117188,0.210938,0.171875,-0.117188,0.023438,-0.359375,0.09375
102744.0,1.695312,-9.6875,-0.078125,0.210938,0.171875,-0.078125,0.064453,-0.359375,0.078125
102764.0,1.734375,-9.53125,-0.078125,0.265625,0.246094,-0.039062,0.072266,-0.351562,0.052734
102785.0,1.769531,-9.53125,-0.039062,0.308594,0.277344,-0.046875,0.050781,-0.333984,0.03125
102805.0,1.769531,-9.53125,0.0,0.273438,0.324219,0.03125,0.027344,-0.318359,0.013672
102837.0,1.847656,-9.570312,0.039062,0.386719,0.230469,0.054688,-0.042969,-0.306641,-0.007812
102869.0,1.847656,-9.839844,0.113281,0.371094,-0.027344,0.152344,-0.052734,-0.279297,-0.023438
102884.0,1.886719,-9.996094,0.152344,0.410156,-0.113281,0.207031,-0.042969,-0.263672,-0.017578
102908.0,1.847656,-9.917969,0.039062,0.355469,-0.113281,0.117188,-0.046875,-0.265625,-0.027344
102924.0,1.808594,-9.992188,0.113281,0.347656,-0.152344,0.164062,0.001953,-0.234375,-0.011719
102947.0,1.769531,-9.914062,0.113281,0.269531,-0.121094,0.207031,0.013672,-0.228516,-0.007812
102964.0,1.734375,-9.914062,0.078125,0.21875,-0.121094,0.214844,0.025391,-0.228516,0.003906
102983.0,1.695312,-9.878906,0.039062,0.179688,-0.082031,0.179688,0.066406,-0.216797,0.007812
103003.0,1.617188,-9.804688,0.039062,0.148438,-0.042969,0.171875,0.080078,-0.214844,0.007812
103024.0,1.578125,-9.691406,0.078125,0.0625,0.109375,0.164062,0.052734,-0.210938,0.011719
103048.0,1.578125,-9.691406,0.078125,0.0625,0.101562,0.164062,0.048828,-0.201172,0.013672
103064.0,1.578125,-9.730469,0.152344,0.0625,0.0625,0.230469,0.054688,-0.175781,0.009766
103087.0,1.578125,-9.730469,0.113281,0.054688,0.0625,0.183594,0.064453,-0.169922,0.0
103105.0,1.578125,-9.765625,0.113281,0.054688,0.023438,0.183594,0.064453,-0.160156,-0.007812
103119.0,1.617188,-9.765625,0.078125,0.09375,0.023438,0.140625,0.060547,-0.148438,-0.005859
103158.0,1.617188,-9.914062,0.113281,0.085938,-0.136719,0.160156,0.042969,-0.126953,-0.003906
103174.0,1.65625,-9.875,0.078125,0.125,-0.136719,0.125,0.052734,-0.095703,-0.003906
103198.0,1.65625,-9.875,0.039062,0.109375,-0.097656,0.078125,0.044922,-0.080078,0.003906
103214.0,1.65625,-9.835938,0.039062,0.109375,-0.097656,0.039062,0.023438,-0.064453,0.021484
103236.0,1.617188,-9.804688,0.078125,0.078125,-0.023438,0.109375,0.001953,-0.058594,0.041016
103266.0,1.617188,-9.875,0.113281,0.085938,-0.089844,0.136719,0.021484,-0.046875,0.052734
103283.0,1.578125,-9.835938,0.039062,0.09375,-0.097656,0.101562,0.033203,-0.050781,0.048828
103307.0,1.578125,-9.835938,0.039062,0.0625,-0.058594,0.0625,0.027344,-0.052734,0.054688
103324.0,1.65625,-9.835938,0.113281,0.101562,-0.097656,0.101562,0.019531,-0.035156,0.068359
103346.0,1.617188,-9.914062,0.113281,0.125,-0.128906,0.128906,0.025391,-0.039062,0.078125
103363.0,1.65625,-9.875,0.152344,0.171875,-0.089844,0.167969,0.046875,-0.033203,0.074219
103394.0,1.65625,-9.835938,0.152344,0.195312,-0.128906,0.113281,0.066406,-0.019531,0.080078
103417.0,1.695312,-9.835938,0.191406,0.09375,-0.003906,0.097656,0.054688,-0.005859,0.085938
103434.0,1.65625,-9.808594,0.191406,0.0625,0.03125,0.050781,0.041016,0.009766,0.083984
103454.0,1.65625,-9.839844,0.191406,0.078125,-0.003906,0.082031,0.041016,0.021484,0.080078
103473.0,1.617188,-9.804688,0.152344,0.085938,-0.003906,0.074219,0.048828,0.029297,0.072266
103494.0,1.617188,-9.765625,0.113281,0.0625,0.070312,-0.019531,0.044922,0.033203,0.066406
103526.0,1.578125,-9.730469,0.078125,0.039062,0.109375,-0.078125,0.035156,0.044922,0.054688
103557.0,1.617188,-9.804688,0.113281,0.078125,0.023438,-0.050781,0.027344,0.044922,0.048828
103573.0,1.617188,-9.804688,0.078125,0.085938,0.023438,-0.085938,0.021484,0.046875,0.042969
103598.0,1.617188,-9.765625,0.078125,0.085938,0.0625,-0.09375,0.009766,0.048828,0.039062
103614.0,1.578125,-9.804688,0.039062,0.085938,0.023438,-0.125,0.001953,0.052734,0.037109
103629.0,1.578125,-9.804688,0.0,0.054688,0.054688,-0.125,0.001953,0.048828,0.037109
103653.0,1.578125,-9.804688,0.039062,0.054688,0.054688,-0.15625,-0.017578,0.041016,0.033203
103674.0,1.578125,-9.835938,-0.039062,0.054688,-0.027344,-0.148438,-0.015625,0.035156,0.023438
103693.0,1.578125,-9.804688,0.0,0.054688,0.015625,-0.171875,-0.03125,0.027344,0.023438
103713.0,1.542969,-9.839844,0.078125,0.046875,0.015625,-0.078125,-0.037109,0.017578,0.017578
103746.0,1.542969,-9.839844,0.0,0.019531,-0.019531,-0.09375,-0.027344,0.011719,0.007812
103777.0,1.578125,-9.953125,0.113281,0.046875,-0.136719,0.035156,0.003906,0.007812,0.0
103794.0,1.542969,-9.917969,0.113281,0.046875,-0.136719,0.035156,0.019531,0.009766,-0.009766
103816.0,1.578125,-9.914062,0.078125,0.039062,-0.082031,0.0,0.029297,0.015625,-0.005859
103833.0,1.542969,-9.839844,0.113281,0.003906,-0.050781,-0.007812,0.009766,0.037109,0.013672
103854.0,1.503906,-9.808594,0.078125,0.003906,0.023438,-0.007812,-0.027344,0.044922,0.025391
103873.0,1.464844,-9.839844,0.078125,-0.066406,0.039062,-0.039062,-0.046875,0.052734,0.029297
103887.0,1.464844,-9.839844,0.078125,-0.097656,0.003906,0.007812,-0.044922,0.052734,0.029297
103903.0,1.464844,-9.839844,0.039062,-0.050781,-0.035156,-0.023438,-0.023438,0.041016,0.025391
103925.0,1.464844,-9.839844,0.113281,-0.050781,0.003906,0.058594,-0.013672,0.035156,0.025391
103957.0,1.464844,-9.808594,0.113281,-0.027344,0.039062,0.050781,0.003906,0.023438,0.025391
103972.0,1.464844,-9.839844,0.113281,-0.027344,0.039062,0.015625,0.001953,0.017578,0.03125
103996.0,1.464844,-9.808594,0.152344,-0.011719,0.039062,0.082031,0.015625,0.019531,0.025391
104013.0,1.464844,-9.808594,0.152344,-0.050781,0.039062,0.082031,0.017578,0.025391,0.023438
104035.0,1.464844,-9.839844,0.152344,-0.003906,0.003906,0.066406,0.015625,0.03125,0.019531
104065.0,1.503906,-9.808594,0.152344,0.042969,0.03125,0.050781,0.009766,0.041016,0.019531
104076.0,1.503906,-9.839844,0.152344,0.050781,0.003906,0.050781,-0.001953,0.044922,0.023438
104093.0,1.503906,-9.878906,0.152344,0.050781,0.003906,0.050781,0.001953,0.054688,0.019531
104107.0,1.503906,-9.875,0.191406,0.003906,0.003906,0.042969,0.007812,0.056641,0.017578
104137.0,1.464844,-9.769531,0.113281,0.019531,0.070312,-0.011719,0.021484,0.064453,0.019531
104153.0,1.425781,-9.730469,0.113281,-0.019531,0.078125,-0.011719,-0.001953,0.066406,0.015625
104177.0,1.425781,-9.765625,0.039062,-0.011719,0.078125,-0.085938,-0.003906,0.070312,0.021484
104192.0,1.425781,-9.804688,0.039062,0.027344,0.070312,-0.085938,-0.007812,0.060547,0.011719
104215.0,1.425781,-9.804688,0.039062,-0.011719,0.03125,-0.085938,0.0,0.058594,0.011719
104232.0,1.425781,-9.804688,0.078125,0.035156,0.039062,-0.085938,-0.001953,0.054688,0.007812
104255.0,1.425781,-9.765625,0.039062,-0.003906,0.078125,-0.09375,-0.003906,0.054688,0.007812
104272.0,1.464844,-9.808594,0.039062,-0.003906,0.039062,-0.09375,-0.015625,0.054688,0.0
104302.0,1.464844,-9.839844,0.039062,0.035156,0.003906,-0.046875,-0.019531,0.052734,0.007812
104325.0,1.425781,-9.875,0.078125,-0.003906,-0.035156,-0.046875,-0.019531,0.048828,0.005859
104362.0,1.425781,-9.875,0.078125,0.042969,-0.035156,-0.046875,-0.013672,0.037109,0.011719
104382.0,1.425781,-9.835938,0.113281,0.003906,-0.035156,-0.003906,-0.009766,0.033203,0.013672
104402.0,1.425781,-9.835938,0.078125,0.003906,0.003906,-0.003906,-0.009766,0.029297,0.023438
104422.0,1.425781,-9.804688,0.113281,-0.027344,0.039062,-0.003906,-0.007812,0.023438,0.025391
104442.0,1.386719,-9.769531,0.152344,0.019531,0.078125,-0.003906,-0.003906,0.023438,0.025391
104465.0,1.425781,-9.765625,0.113281,-0.011719,0.046875,0.042969,-0.003906,0.019531,0.023438
104475.0,1.386719,-9.769531,0.113281,-0.050781,0.054688,0.042969,0.005859,0.013672,0.017578
104505.0,1.386719,-9.765625,0.191406,-0.035156,0.046875,0.113281,0.013672,0.009766,0.015625
104576.0,1.386719,-9.835938,0.191406,-0.027344,-0.027344,0.089844,0.011719,0.009766,0.011719
104592.0,1.386719,-9.835938,0.191406,-0.027344,-0.027344,0.089844,0.015625,0.005859,0.007812
104615.0,1.351562,-9.835938,0.191406,-0.054688,-0.035156,0.082031,0.007812,0.007812,0.015625
104633.0,1.386719,-9.875,0.230469,-0.011719,-0.027344,0.105469,0.017578,0.005859,0.027344
104647.0,1.351562,-9.878906,0.152344,-0.011719,-0.105469,0.027344,0.027344,0.001953,0.035156
104662.0,1.351562,-9.875,0.191406,-0.003906,-0.105469,0.019531,0.041016,-0.003906,0.041016
104701.0,1.3125,-9.765625,0.191406,-0.054688,0.054688,0.035156,0.039062,-0.003906,0.048828
104724.0,1.273438,-9.804688,0.152344,-0.078125,0.023438,-0.027344,0.041016,-0.003906,0.044922
104742.0,1.234375,-9.769531,0.191406,-0.070312,0.023438,0.003906,0.054688,-0.005859,0.035156
104756.0,1.273438,-9.808594,0.230469,-0.0625,0.0625,-0.003906,0.0625,-0.001953,0.027344
104772.0,1.273438,-9.808594,0.230469,-0.054688,0.015625,0.019531,0.064453,0.003906,0.019531
104796.0,1.234375,-9.808594,0.230469,-0.078125,0.015625,-0.003906,0.0625,0.019531,0.011719
104812.0,1.273438,-9.839844,0.230469,-0.078125,-0.019531,0.027344,0.058594,0.027344,0.003906
104834.0,1.234375,-9.839844,0.230469,-0.070312,-0.019531,-0.027344,0.052734,0.042969,0.0
104852.0,1.234375,-9.839844,0.230469,-0.109375,0.015625,-0.066406,0.033203,0.056641,0.001953
104866.0,1.195312,-9.875,0.230469,-0.0625,-0.058594,0.003906,0.025391,0.064453,0.007812
104881.0,1.234375,-9.917969,0.230469,-0.0625,-0.058594,0.003906,0.019531,0.076172,0.019531
104905.0,1.234375,-9.953125,0.269531,-0.039062,-0.136719,-0.003906,0.027344,0.082031,0.029297
104921.0,1.195312,-9.914062,0.304688,-0.078125,-0.128906,0.023438,0.037109,0.080078,0.033203
104944.0,1.195312,-9.914062,0.304688,-0.0625,-0.082031,0.007812,0.035156,0.076172,0.035156
104961.0,1.234375,-9.917969,0.304688,-0.015625,-0.082031,0.054688,0.033203,0.076172,0.03125
104982.0,1.234375,-9.875,0.34375,-0.046875,-0.035156,0.039062,0.027344,0.072266,0.029297
105015.0,1.234375,-9.875,0.382812,0.015625,-0.027344,0.054688,0.041016,0.087891,0.023438
105031.0,1.234375,-9.875,0.382812,0.015625,-0.058594,0.046875,0.033203,0.097656,0.019531
105084.0,1.273438,-9.835938,0.34375,0.070312,0.027344,-0.015625,0.001953,0.128906,0.023438
105132.0,1.234375,-9.804688,0.34375,0.039062,0.027344,-0.015625,-0.001953,0.148438,0.037109
105156.0,1.234375,-9.769531,0.304688,0.046875,0.109375,-0.0625,-0.001953,0.140625,0.037109
105171.0,1.234375,-9.804688,0.34375,0.054688,0.070312,-0.0625,0.011719,0.132812,0.03125
105195.0,1.273438,-9.835938,0.382812,0.085938,0.027344,0.007812,0.03125,0.125,0.025391
105211.0,1.195312,-9.808594,0.382812,0.09375,0.027344,0.0,0.041016,0.113281,0.015625
105234.0,1.234375,-9.808594,0.421875,0.054688,0.054688,0.023438,0.039062,0.117188,0.003906
105251.0,1.234375,-9.839844,0.421875,0.054688,0.054688,-0.023438,0.039062,0.125,0.0
105266.0,1.234375,-9.835938,0.460938,0.046875,0.011719,0.054688,0.037109,0.132812,-0.001953
105304.0,1.273438,-9.875,0.460938,0.085938,-0.027344,0.03125,0.019531,0.154297,-0.009766
105321.0,1.273438,-9.835938,0.460938,0.078125,0.011719,0.058594,0.003906,0.173828,-0.007812
105375.0,1.234375,-9.839844,0.421875,0.023438,0.011719,-0.03125,-0.001953,0.189453,-0.027344
105391.0,1.195312,-9.878906,0.460938,-0.023438,-0.027344,0.0,0.005859,0.189453,-0.035156
105413.0,1.195312,-9.835938,0.421875,-0.03125,0.011719,-0.046875,0.005859,0.189453,-0.041016
105453.0,1.234375,-9.835938,0.382812,-0.007812,0.003906,-0.085938,-0.029297,0.189453,-0.041016
105483.0,1.234375,-9.804688,0.34375,-0.023438,0.039062,-0.109375,-0.048828,0.181641,-0.041016
105500.0,1.234375,-9.835938,0.34375,-0.015625,0.003906,-0.0625,-0.056641,0.177734,-0.041016
105523.0,1.273438,-9.878906,0.304688,0.007812,-0.035156,-0.132812,-0.060547,0.162109,-0.044922
105540.0,1.3125,-9.914062,0.304688,0.007812,-0.035156,-0.078125,-0.044922,0.152344,-0.042969
105560.0,1.3125,-9.878906,0.34375,0.039062,-0.074219,-0.078125,-0.029297,0.144531,-0.046875
105580.0,1.3125,-9.914062,0.304688,0.03125,-0.074219,-0.0625,-0.015625,0.132812,-0.054688
105601.0,1.351562,-9.878906,0.34375,0.054688,-0.066406,-0.0625,-0.019531,0.126953,-0.058594
105634.0,1.351562,-9.875,0.304688,0.03125,-0.027344,-0.085938,-0.027344,0.125,-0.056641
105651.0,1.351562,-9.878906,0.382812,0.023438,-0.027344,-0.039062,-0.041016,0.126953,-0.052734
105665.0,1.351562,-9.878906,0.382812,0.015625,-0.027344,-0.039062,-0.041016,0.125,-0.048828
105680.0,1.386719,-9.914062,0.304688,0.007812,-0.027344,-0.03125,-0.033203,0.119141,-0.048828
105703.0,1.351562,-9.839844,0.34375,-0.007812,0.011719,-0.015625,-0.029297,0.115234,-0.046875
105720.0,1.386719,-9.835938,0.304688,0.027344,0.011719,-0.015625,-0.033203,0.107422,-0.037109
105743.0,1.386719,-9.835938,0.304688,0.011719,0.019531,-0.039062,-0.039062,0.101562,-0.029297
105760.0,1.386719,-9.808594,0.34375,0.003906,0.046875,0.0,-0.039062,0.085938,-0.021484
105781.0,1.386719,-9.839844,0.34375,0.003906,0.011719,0.046875,-0.03125,0.076172,-0.021484
105814.0,1.386719,-9.808594,0.34375,-0.003906,0.054688,0.007812,-0.017578,0.060547,-0.03125
105831.0,1.425781,-9.804688,0.382812,0.027344,0.039062,0.054688,-0.013672,0.052734,-0.023438
105845.0,1.386719,-9.839844,0.382812,0.027344,0.003906,0.054688,-0.005859,0.046875,-0.023438
105884.0,1.425781,-9.835938,0.34375,0.011719,0.003906,0.007812,-0.003906,0.039062,-0.019531
105900.0,1.386719,-9.808594,0.34375,0.003906,0.039062,0.046875,-0.001953,0.035156,-0.021484
105923.0,1.386719,-9.808594,0.34375,-0.027344,0.023438,0.007812,-0.005859,0.03125,-0.021484
105954.0,1.386719,-9.839844,0.34375,-0.042969,-0.003906,0.0,-0.007812,0.029297,-0.017578
105970.0,1.386719,-9.875,0.304688,-0.003906,-0.011719,-0.03125,0.003906,0.019531,-0.015625
105994.0,1.386719,-9.835938,0.304688,-0.050781,-0.011719,-0.039062,0.013672,0.013672,-0.011719
106010.0,1.351562,-9.808594,0.34375,-0.042969,-0.011719,-0.03125,0.007812,0.003906,-0.011719
106033.0,1.386719,-9.875,0.304688,-0.042969,-0.050781,-0.039062,-0.001953,0.001953,-0.007812
106050.0,1.351562,-9.875,0.304688,-0.078125,-0.050781,-0.039062,0.001953,-0.005859,-0.007812
106064.0,1.386719,-9.875,0.304688,-0.035156,-0.050781,0.0,0.005859,-0.009766,-0.003906
106080.0,1.351562,-9.875,0.304688,-0.070312,-0.089844,-0.039062,0.015625,-0.009766,0.0
106103.0,1.351562,-9.835938,0.304688,-0.070312,-0.003906,-0.039062,0.009766,-0.011719,0.003906
106120.0,1.351562,-9.835938,0.304688,-0.0625,-0.003906,0.0,0.007812,-0.009766,0.011719
106135.0,1.351562,-9.878906,0.34375,-0.101562,-0.042969,0.007812,0.009766,-0.011719,0.011719
106174.0,1.351562,-9.839844,0.34375,-0.039062,0.003906,0.0,0.005859,-0.011719,0.013672
106213.0,1.351562,-9.875,0.421875,-0.023438,-0.035156,0.078125,-0.003906,0.001953,0.019531
106230.0,1.3125,-9.878906,0.382812,-0.023438,-0.035156,0.039062,0.001953,0.001953,0.021484
106245.0,1.351562,-9.878906,0.382812,-0.046875,0.046875,0.03125,0.003906,0.005859,0.017578
106260.0,1.273438,-9.765625,0.382812,-0.046875,0.085938,0.070312,-0.001953,0.005859,0.015625
106283.0,1.273438,-9.691406,0.382812,-0.078125,0.15625,0.03125,-0.015625,0.007812,0.007812
106299.0,1.273438,-9.648438,0.382812,-0.078125,0.195312,0.03125,-0.03125,0.007812,0.0
106323.0,1.3125,-9.652344,0.34375,-0.023438,0.1875,0.0,-0.044922,0.005859,-0.011719
106339.0,1.3125,-9.613281,0.382812,0.007812,0.179688,0.039062,-0.072266,0.005859,-0.021484
106360.0,1.351562,-9.457031,0.34375,0.007812,0.285156,0.015625,-0.138672,0.0,-0.033203
106380.0,1.351562,-9.304688,0.230469,-0.03125,0.460938,0.0,-0.271484,-0.011719,-0.046875
106399.0,1.351562,-8.960938,0.039062,-0.007812,0.730469,-0.136719,-0.484375,-0.015625,-0.0625
106423.0,1.234375,-8.421875,-0.269531,-0.140625,1.363281,-0.347656,-0.632812,-0.025391,-0.078125
106440.0,1.234375,-8.382812,-0.421875,-0.148438,1.402344,-0.414062,-1.089844,-0.056641,-0.136719
106462.0,1.273438,-8.6875,-0.691406,-0.15625,1.082031,-0.363281,-1.167969,-0.058594,-0.185547
106472.0,1.3125,-8.925781,-0.652344,-0.148438,0.84375,-0.222656,-0.943359,-0.023438,-0.3125
106491.0,1.234375,-9.035156,-0.765625,-0.304688,0.707031,-0.203125,-0.677734,-0.023438,-0.421875
106503.0,1.3125,-8.964844,-0.804688,-0.25,1.035156,-0.304688,0.001953,-0.076172,-0.691406
106519.0,1.351562,-8.082031,-1.074219,-0.328125,1.285156,-0.394531,0.556641,-0.183594,-0.957031
106542.0,1.542969,-6.8125,-1.226562,-0.425781,2.839844,-0.828125,0.71875,-0.306641,-1.205078
106559.0,1.734375,-6.433594,-1.265625,-0.507812,3.085938,-0.882812,0.533203,-0.373047,-1.390625
106573.0,2.078125,-7.039062,-1.1875,0.347656,1.453125,-0.699219,0.394531,-0.361328,-1.423828
106589.0,3.6875,-8.921875,-0.652344,0.78125,0.6875,-0.484375,-0.001953,-0.353516,-1.458984
106613.0,4.566406,-9.648438,-0.726562,1.675781,-0.242188,-0.421875,-0.382812,-0.466797,-1.404297
106629.0,4.796875,-10.113281,-0.804688,1.660156,-0.558594,-0.40625,-0.464844,-0.445312,-1.308594
106646.0,5.027344,-11.0625,-0.691406,1.65625,-0.789062,-0.390625,-0.414062,-0.357422,-1.269531
106661.0,5.410156,-11.722656,-0.5,1.933594,-2.53125,0.046875,-0.320312,-0.285156,-1.214844
106682.0,5.523438,-11.0625,-0.613281,1.84375,-1.972656,-0.011719,-0.132812,-0.353516,-1.152344
106698.0,5.21875,-10.796875,-0.652344,1.636719,-1.9375,0.003906,0.150391,-0.412109,-0.955078
106722.0,4.835938,-10.03125,-0.574219,0.820312,-1.078125,0.050781,0.197266,-0.400391,-0.888672
106739.0,4.527344,-9.496094,-0.535156,0.589844,-0.8125,0.050781,0.128906,-0.382812,-0.761719
106759.0,4.144531,-8.804688,-0.574219,0.042969,-0.175781,0.058594,0.070312,-0.371094,-0.742188
106778.0,3.992188,-8.582031,-0.574219,-0.359375,0.203125,0.074219,-0.027344,-0.382812,-0.769531
106799.0,3.726562,-7.777344,-0.574219,-0.765625,0.792969,0.121094,-0.134766,-0.402344,-0.826172
106841.0,3.648438,-7.3125,-0.613281,-1.132812,1.234375,0.214844,-0.148438,-0.441406,-1.083984
106868.0,4.144531,-7.351562,-0.652344,-1.136719,1.246094,0.195312,0.072266,-0.464844,-1.371094
106889.0,4.605469,-7.582031,-0.691406,-0.851562,0.769531,0.300781,0.228516,-0.445312,-1.53125
106903.0,5.027344,-8.042969,-0.691406,0.054688,-0.355469,0.316406,0.253906,-0.4375,-1.5625
106919.0,6.367188,-8.503906,-0.613281,0.390625,-0.5625,0.363281,0.150391,-0.416016,-1.560547
106933.0,6.636719,-8.382812,-0.613281,0.882812,-0.3125,0.386719,0.052734,-0.417969,-1.53125
106958.0,7.097656,-8.082031,-0.691406,0.902344,-0.300781,0.402344,-0.251953,-0.353516,-1.347656
106978.0,7.25,-7.925781,-0.957031,0.929688,-0.625,0.414062,-0.501953,-0.271484,-1.292969
106998.0,7.25,-7.777344,-1.148438,0.875,-0.558594,0.238281,-0.667969,-0.236328,-1.267578
107018.0,7.25,-7.460938,-1.496094,0.609375,-0.417969,-0.011719,-0.710938,-0.183594,-1.251953
107042.0,7.402344,-7.429688,-1.570312,0.511719,-0.632812,-0.023438,-0.693359,-0.152344,-1.244141
107058.0,7.441406,-7.199219,-1.648438,0.464844,-0.609375,-0.007812,-0.46875,-0.125,-1.25
107081.0,7.441406,-6.851562,-1.761719,0.222656,-0.4375,-0.058594,-0.363281,-0.123047,-1.25
107104.0,7.476562,-6.546875,-1.878906,0.191406,-0.378906,-0.144531,-0.169922,-0.164062,-1.265625
107122.0,7.558594,-6.277344,-1.953125,0.078125,-0.125,-0.148438,-0.169922,-0.183594,-1.263672
107138.0,7.671875,-6.011719,-1.992188,0.0,-0.15625,-0.125,-0.201172,-0.171875,-1.269531
107153.0,7.675781,-5.933594,-1.992188,-0.027344,-0.09375,-0.15625,-0.228516,-0.167969,-1.277344
107192.0,8.125,-5.628906,-2.070312,0.113281,-0.324219,-0.078125,-0.347656,-0.177734,-1.328125
107208.0,8.246094,-5.511719,-2.03125,0.082031,-0.410156,0.0,-0.441406,-0.183594,-1.326172
107232.0,8.402344,-5.4375,-2.375,0.132812,-0.601562,-0.226562,-0.580078,-0.232422,-1.298828
107248.0,8.546875,-5.511719,-2.492188,0.222656,-0.847656,-0.289062,-0.697266,-0.25,-1.261719
107263.0,8.625,-5.472656,-2.605469,0.3125,-1.121094,-0.300781,-0.740234,-0.259766,-1.230469
107277.0,8.863281,-5.664062,-2.566406,0.304688,-1.351562,-0.207031,-0.732422,-0.246094,-1.15625
107302.0,8.96875,-5.472656,-2.605469,0.371094,-1.457031,-0.089844,-0.763672,-0.240234,-1.058594
107317.0,9.011719,-5.320312,-2.683594,0.417969,-1.574219,-0.035156,-0.765625,-0.232422,-0.935547
107341.0,9.011719,-5.089844,-2.835938,0.285156,-1.480469,-0.125,-0.714844,-0.210938,-0.779297
107358.0,9.007812,-4.9375,-2.796875,0.269531,-1.484375,-0.078125,-0.677734,-0.152344,-0.613281
107378.0,8.929688,-4.707031,-2.71875,0.199219,-1.433594,0.0625,-0.636719,-0.109375,-0.445312
107397.0,8.929688,-4.632812,-2.644531,0.128906,-1.386719,0.199219,-0.615234,-0.048828,-0.283203
107417.0,8.824219,-4.632812,-2.566406,0.046875,-1.4375,0.371094,-0.587891,0.021484,-0.142578
107438.0,8.785156,-4.707031,-2.492188,-0.007812,-1.527344,0.441406,-0.515625,0.091797,-0.021484
107457.0,8.667969,-4.707031,-2.492188,-0.132812,-1.597656,0.492188,-0.40625,0.132812,0.072266
107480.0,8.628906,-4.59375,-2.414062,-0.214844,-1.484375,0.570312,-0.353516,0.150391,0.109375
107521.0,8.785156,-4.363281,-2.414062,-0.0625,-1.199219,0.53125,-0.296875,0.214844,0.306641
107537.0,8.785156,-4.285156,-2.375,-0.054688,-1.128906,0.570312,-0.363281,0.234375,0.382812
107559.0,8.78125,-4.171875,-2.414062,-0.039062,-0.898438,0.5,-0.396484,0.248047,0.419922
107589.0,8.785156,-4.09375,-2.527344,-0.015625,-0.71875,0.363281,-0.539062,0.304688,0.539062
107607.0,8.894531,-4.058594,-2.605469,0.023438,-0.6875,0.269531,-0.601562,0.326172,0.595703
107631.0,8.890625,-4.058594,-2.644531,0.144531,-0.535156,0.207031,-0.632812,0.333984,0.642578
107648.0,8.890625,-4.019531,-2.644531,0.152344,-0.410156,0.160156,-0.623047,0.337891,0.677734
107662.0,8.894531,-3.980469,-2.683594,0.183594,-0.324219,0.109375,-0.611328,0.34375,0.689453
107677.0,8.929688,-3.941406,-2.796875,0.238281,-0.238281,0.101562,-0.585938,0.353516,0.705078
107701.0,9.050781,-3.867188,-2.949219,0.410156,-0.023438,-0.152344,-0.599609,0.351562,0.716797
107718.0,9.089844,-3.828125,-3.027344,0.417969,0.070312,-0.207031,-0.601562,0.34375,0.740234
107732.0,9.050781,-3.789062,-3.066406,0.425781,0.242188,-0.320312,-0.597656,0.330078,0.753906
107797.0,8.863281,-3.519531,-3.21875,0.359375,0.746094,-0.414062,-0.466797,0.240234,0.707031
107817.0,8.703125,-3.480469,-3.257812,0.335938,0.917969,-0.460938,-0.408203,0.210938,0.644531
107850.0,8.480469,-3.480469,-3.257812,0.15625,1.089844,-0.492188,-0.310547,0.175781,0.511719
107881.0,8.28125,-3.445312,-3.371094,0.011719,1.203125,-0.605469,-0.224609,0.142578,0.339844
107897.0,8.207031,-3.40625,-3.410156,-0.019531,1.265625,-0.644531,-0.181641,0.119141,0.210938
107921.0,8.128906,-3.40625,-3.410156,-0.121094,1.296875,-0.652344,-0.146484,0.091797,0.080078
107937.0,8.058594,-3.40625,-3.410156,-0.164062,1.296875,-0.652344,-0.111328,0.058594,-0.054688
107951.0,8.125,-3.445312,-3.410156,-0.164062,1.25,-0.605469,-0.101562,0.044922,-0.125
107967.0,8.097656,-3.445312,-3.332031,-0.171875,1.234375,-0.597656,-0.109375,0.019531,-0.257812
107991.0,8.203125,-3.480469,-3.332031,-0.105469,1.113281,-0.542969,-0.142578,-0.011719,-0.373047
108006.0,8.285156,-3.519531,-3.332031,-0.089844,1.074219,-0.574219,-0.177734,-0.03125,-0.472656
108030.0,8.441406,-3.597656,-3.332031,0.039062,0.816406,-0.503906,-0.197266,-0.056641,-0.554688
108047.0,8.480469,-3.671875,-3.257812,0.015625,0.6875,-0.488281,-0.201172,-0.078125,-0.630859
108066.0,8.589844,-3.789062,-3.257812,0.082031,0.53125,-0.410156,-0.195312,-0.09375,-0.675781
108087.0,8.707031,-3.828125,-3.257812,0.113281,0.320312,-0.34375,-0.185547,-0.107422,-0.699219
108116.0,8.820312,-3.902344,-3.257812,0.234375,0.011719,-0.289062,-0.15625,-0.132812,-0.679688
108140.0,8.863281,-3.980469,-3.179688,0.203125,-0.253906,-0.15625,-0.123047,-0.144531,-0.646484
108156.0,8.859375,-3.980469,-3.101562,0.1875,-0.269531,-0.09375,-0.080078,-0.142578,-0.595703
108176.0,8.820312,-3.941406,-3.066406,0.117188,-0.378906,0.003906,-0.039062,-0.140625,-0.539062
108196.0,8.78125,-3.980469,-3.027344,0.078125,-0.519531,0.042969,-0.003906,-0.138672,-0.478516
108217.0,8.746094,-4.019531,-3.027344,0.015625,-0.605469,0.105469,0.039062,-0.134766,-0.414062
108250.0,8.707031,-4.058594,-2.988281,-0.09375,-0.808594,0.183594,0.099609,-0.130859,-0.328125
108267.0,8.667969,-4.058594,-2.988281,-0.136719,-0.832031,0.199219,0.144531,-0.126953,-0.279297
108281.0,8.628906,-4.058594,-3.027344,-0.183594,-0.871094,0.214844,0.162109,-0.125,-0.257812
108296.0,8.628906,-4.019531,-2.988281,-0.191406,-0.855469,0.222656,0.193359,-0.113281,-0.214844
108319.0,8.585938,-3.980469,-3.027344,-0.238281,-0.847656,0.191406,0.208984,-0.109375,-0.189453
108336.0,8.585938,-3.941406,-2.988281,-0.277344,-0.855469,0.269531,0.224609,-0.095703,-0.130859
108360.0,8.550781,-3.941406,-3.027344,-0.285156,-0.824219,0.199219,0.216797,-0.083984,-0.101562
108376.0,8.585938,-3.941406,-3.027344,-0.238281,-0.785156,0.207031,0.199219,-0.070312,-0.066406
108396.0,8.546875,-3.902344,-2.988281,-0.285156,-0.777344,0.199219,0.167969,-0.052734,-0.033203
108416.0,8.546875,-3.867188,-2.988281,-0.316406,-0.769531,0.238281,0.134766,-0.035156,0.001953
108436.0,8.585938,-3.828125,-3.066406,-0.238281,-0.726562,0.199219,0.101562,-0.011719,0.041016
108460.0,8.589844,-3.867188,-3.101562,-0.230469,-0.703125,0.125,0.087891,-0.009766,0.060547
108477.0,8.550781,-3.828125,-3.140625,-0.222656,-0.695312,0.125,0.052734,0.013672,0.121094
108499.0,8.625,-3.828125,-3.179688,-0.167969,-0.609375,0.03125,0.054688,0.017578,0.142578
108539.0,8.625,-3.75,-3.179688,-0.152344,-0.445312,0.015625,0.095703,0.025391,0.242188
108556.0,8.664062,-3.75,-3.179688,-0.136719,-0.414062,0.054688,0.119141,0.029297,0.269531
108576.0,8.703125,-3.671875,-3.257812,-0.007812,-0.320312,-0.039062,0.134766,0.035156,0.292969
108595.0,8.664062,-3.636719,-3.257812,-0.039062,-0.25,-0.085938,0.128906,0.033203,0.304688
108616.0,8.628906,-3.597656,-3.179688,-0.050781,-0.128906,-0.070312,0.121094,0.041016,0.308594
108636.0,8.589844,-3.558594,-3.21875,-0.066406,0.019531,-0.054688,0.115234,0.058594,0.3125
108656.0,8.550781,-3.480469,-3.257812,-0.121094,0.128906,-0.101562,0.085938,0.066406,0.300781
108679.0,8.507812,-3.480469,-3.257812,-0.136719,0.253906,-0.164062,0.074219,0.074219,0.296875
108695.0,8.480469,-3.445312,-3.257812,-0.128906,0.3125,-0.140625,0.013672,0.080078,0.265625
108719.0,8.480469,-3.480469,-3.292969,-0.140625,0.347656,-0.238281,-0.001953,0.082031,0.248047
108751.0,8.507812,-3.480469,-3.292969,-0.082031,0.402344,-0.246094,-0.037109,0.070312,0.152344
108790.0,8.550781,-3.480469,-3.292969,-0.035156,0.433594,-0.261719,-0.050781,0.054688,0.054688
108805.0,8.546875,-3.519531,-3.257812,-0.035156,0.394531,-0.261719,-0.054688,0.042969,0.025391
108845.0,8.546875,-3.558594,-3.257812,-0.035156,0.394531,-0.226562,-0.068359,0.023438,-0.041016
108865.0,8.585938,-3.597656,-3.257812,-0.003906,0.339844,-0.226562,-0.074219,0.017578,-0.0625
108885.0,8.625,-3.636719,-3.21875,0.035156,0.292969,-0.226562,-0.074219,0.009766,-0.085938
108900.0,8.585938,-3.636719,-3.21875,0.027344,0.238281,-0.1875,-0.068359,0.007812,-0.095703
108915.0,8.625,-3.636719,-3.257812,0.019531,0.222656,-0.179688,-0.0625,-0.001953,-0.113281
108939.0,8.628906,-3.636719,-3.179688,0.003906,0.183594,-0.132812,-0.064453,-0.001953,-0.121094
108956.0,8.628906,-3.636719,-3.140625,0.003906,0.167969,-0.085938,-0.056641,-0.003906,-0.125
108970.0,8.628906,-3.636719,-3.140625,-0.003906,0.152344,-0.117188,-0.050781,-0.003906,-0.126953
108986.0,8.628906,-3.710938,-3.101562,-0.011719,0.101562,-0.117188,-0.048828,-0.005859,-0.130859
109009.0,8.667969,-3.671875,-3.066406,0.011719,0.0625,0.003906,-0.039062,-0.003906,-0.136719
109026.0,8.667969,-3.671875,-3.066406,-0.027344,0.007812,-0.03125,-0.046875,0.0,-0.138672
109049.0,8.628906,-3.671875,-3.140625,-0.050781,0.007812,-0.0625,-0.052734,0.009766,-0.138672
109066.0,8.585938,-3.710938,-3.066406,-0.089844,-0.007812,-0.023438,-0.068359,0.023438,-0.134766
109080.0,8.585938,-3.710938,-3.066406,-0.058594,-0.078125,0.011719,-0.080078,0.029297,-0.134766
109095.0,8.628906,-3.710938,-3.027344,-0.097656,-0.085938,0.050781,-0.091797,0.041016,-0.134766
109125.0,8.628906,-3.75,-3.027344,-0.074219,-0.171875,-0.015625,-0.117188,0.060547,-0.134766
109158.0,8.628906,-3.789062,-3.101562,-0.105469,-0.273438,-0.023438,-0.173828,0.085938,-0.125
109175.0,8.589844,-3.75,-3.101562,-0.113281,-0.289062,0.011719,-0.212891,0.105469,-0.119141
109195.0,8.628906,-3.828125,-3.101562,-0.128906,-0.359375,0.011719,-0.246094,0.125,-0.109375
109215.0,8.625,-3.828125,-3.140625,-0.105469,-0.390625,-0.070312,-0.289062,0.138672,-0.101562
109235.0,8.585938,-3.828125,-3.140625,-0.152344,-0.390625,-0.03125,-0.335938,0.154297,-0.087891
109265.0,8.585938,-3.828125,-3.140625,-0.214844,-0.4375,-0.078125,-0.394531,0.177734,-0.066406
109285.0,8.625,-3.867188,-3.140625,-0.222656,-0.515625,-0.085938,-0.433594,0.1875,-0.050781
109316.0,8.585938,-3.867188,-3.179688,-0.246094,-0.570312,-0.125,-0.505859,0.210938,-0.025391
109330.0,8.625,-3.867188,-3.179688,-0.222656,-0.675781,-0.132812,-0.53125,0.21875,-0.017578
109355.0,8.625,-3.902344,-3.140625,-0.238281,-0.746094,-0.132812,-0.601562,0.234375,0.015625
109374.0,8.667969,-3.941406,-3.140625,-0.207031,-0.777344,-0.09375,-0.632812,0.244141,0.039062
109395.0,8.667969,-3.941406,-3.066406,-0.222656,-0.808594,-0.0625,-0.658203,0.255859,0.060547
109418.0,8.625,-3.941406,-2.988281,-0.277344,-0.847656,0.042969,-0.667969,0.263672,0.074219
109447.0,8.625,-3.902344,-2.796875,-0.292969,-0.839844,0.234375,-0.757812,0.314453,0.119141
109465.0,8.667969,-3.867188,-2.757812,-0.253906,-0.8125,0.226562,-0.835938,0.351562,0.146484
109479.0,8.667969,-3.867188,-2.757812,-0.269531,-0.835938,0.25,-0.884766,0.371094,0.154297
109495.0,8.707031,-3.867188,-2.757812,-0.242188,-0.851562,0.28125,-0.990234,0.414062,0.185547
109517.0,8.820312,-3.867188,-2.835938,-0.140625,-0.882812,0.140625,-1.052734,0.429688,0.201172
109534.0,8.820312,-3.867188,-2.835938,-0.140625,-0.898438,0.179688,-1.228516,0.476562,0.28125
109558.0,8.785156,-3.867188,-2.757812,-0.195312,-0.921875,0.203125,-1.318359,0.494141,0.34375
109574.0,8.820312,-3.867188,-2.757812,-0.164062,-0.957031,0.195312,-1.373047,0.505859,0.414062
109604.0,8.972656,-3.902344,-2.875,-0.050781,-0.957031,0.101562,-1.410156,0.494141,0.523438
109629.0,8.890625,-3.867188,-2.910156,-0.089844,-0.898438,0.027344,-1.404297,0.462891,0.595703
109645.0,8.820312,-3.828125,-2.835938,-0.109375,-0.882812,0.0625,-1.373047,0.433594,0.658203
109659.0,8.785156,-3.828125,-2.835938,-0.179688,-0.796875,0.148438,-1.347656,0.419922,0.6875
109674.0,8.742188,-3.789062,-2.796875,-0.210938,-0.734375,0.195312,-1.294922,0.378906,0.724609
109698.0,8.746094,-3.671875,-2.796875,-0.171875,-0.53125,0.171875,-1.277344,0.357422,0.744141
109725.0,8.824219,-3.671875,-2.71875,-0.109375,-0.53125,0.21875,-1.164062,0.25,0.798828
109744.0,8.820312,-3.636719,-2.605469,0.023438,-0.339844,0.339844,-1.082031,0.197266,0.806641
109769.0,8.863281,-3.671875,-2.566406,0.085938,-0.265625,0.519531,-1.021484,0.171875,0.806641
109784.0,8.929688,-3.636719,-2.605469,0.144531,-0.183594,0.535156,-0.837891,0.113281,0.765625
109808.0,9.050781,-3.597656,-2.527344,0.371094,-0.019531,0.628906,-0.748047,0.074219,0.738281
109824.0,9.085938,-3.597656,-2.527344,0.4375,0.035156,0.582031,-0.666016,0.042969,0.712891
109847.0,9.089844,-3.558594,-2.492188,0.507812,0.191406,0.757812,-0.583984,0.013672,0.691406
109864.0,9.011719,-3.519531,-2.414062,0.503906,0.238281,0.851562,-0.503906,-0.005859,0.677734
109879.0,9.007812,-3.480469,-2.375,0.519531,0.429688,0.929688,-0.458984,-0.007812,0.671875
109904.0,8.894531,-3.40625,-2.296875,0.488281,0.515625,1.007812,-0.375,-0.005859,0.65625
109925.0,8.859375,-3.367188,-2.261719,0.46875,0.679688,1.113281,-0.349609,0.003906,0.642578
109957.0,8.859375,-3.328125,-2.261719,0.570312,0.898438,1.160156,-0.326172,0.03125,0.619141
109974.0,8.859375,-3.289062,-2.261719,0.601562,0.976562,1.167969,-0.328125,0.064453,0.587891
109994.0,9.050781,-3.253906,-2.492188,0.832031,1.082031,1.070312,-0.361328,0.097656,0.566406
110014.0,9.011719,-3.175781,-2.527344,0.839844,1.191406,0.96875,-0.382812,0.117188,0.554688
110034.0,8.859375,-3.136719,-2.644531,0.839844,1.292969,0.871094,-0.417969,0.136719,0.527344
110058.0,8.707031,-3.175781,-2.757812,0.632812,1.378906,0.726562,-0.419922,0.136719,0.517578
110074.0,8.511719,-3.023438,-2.910156,0.566406,1.472656,0.65625,-0.417969,0.126953,0.443359
110097.0,8.4375,-2.90625,-3.027344,0.421875,1.726562,0.488281,-0.410156,0.128906,0.414062
110113.0,8.4375,-2.945312,-3.140625,0.390625,1.703125,0.488281,-0.394531,0.160156,0.308594
110154.0,8.4375,-3.0625,-3.523438,0.492188,1.640625,0.082031,-0.361328,0.166016,0.060547
110174.0,8.285156,-2.984375,-3.601562,0.367188,1.671875,-0.015625,-0.386719,0.150391,-0.091797
110223.0,8.242188,-3.136719,-3.832031,0.183594,1.394531,-0.222656,-0.441406,0.068359,-0.382812
110246.0,8.402344,-3.175781,-3.753906,0.273438,1.167969,-0.144531,-0.404297,0.066406,-0.4375
110276.0,8.402344,-3.367188,-3.792969,0.195312,0.789062,-0.160156,-0.275391,0.048828,-0.597656
110294.0,8.507812,-3.40625,-3.984375,0.242188,0.726562,-0.265625,-0.164062,-0.046875,-0.697266
110317.0,8.707031,-3.519531,-4.0625,0.390625,0.371094,-0.398438,-0.044922,-0.089844,-0.740234
110333.0,8.785156,-3.671875,-3.984375,0.359375,0.230469,-0.351562,0.152344,-0.113281,-0.765625
110357.0,8.820312,-3.75,-3.832031,0.398438,-0.09375,-0.152344,0.369141,-0.134766,-0.769531
110374.0,8.859375,-3.636719,-3.871094,0.382812,-0.109375,-0.121094,0.496094,-0.175781,-0.751953
110393.0,8.785156,-3.519531,-3.945312,0.335938,-0.011719,-0.242188,0.541016,-0.212891,-0.685547
110413.0,8.746094,-3.480469,-3.90625,0.28125,-0.050781,-0.28125,0.541016,-0.238281,-0.611328
110433.0,8.703125,-3.519531,-3.90625,0.164062,-0.160156,-0.242188,0.537109,-0.259766,-0.537109
110497.0,8.667969,-3.597656,-3.984375,0.074219,-0.394531,-0.28125,0.611328,-0.3125,-0.423828
110513.0,8.667969,-3.597656,-3.90625,0.082031,-0.410156,-0.234375,0.642578,-0.328125,-0.414062
110537.0,8.585938,-3.558594,-3.90625,0.003906,-0.410156,-0.171875,0.664062,-0.349609,-0.40625
110553.0,8.507812,-3.519531,-3.90625,-0.042969,-0.386719,-0.164062,0.673828,-0.359375,-0.396484
110573.0,8.441406,-3.519531,-3.90625,-0.109375,-0.402344,-0.140625,0.677734,-0.367188,-0.388672
110593.0,8.402344,-3.519531,-3.871094,-0.148438,-0.410156,-0.132812,0.695312,-0.359375,-0.382812
110613.0,8.320312,-3.519531,-3.832031,-0.226562,-0.433594,0.011719,0.707031,-0.339844,-0.376953
110643.0,8.359375,-3.480469,-3.832031,-0.21875,-0.410156,0.003906,0.683594,-0.330078,-0.353516
110663.0,8.4375,-3.519531,-3.792969,-0.179688,-0.464844,0.011719,0.638672,-0.314453,-0.333984
110677.0,8.4375,-3.558594,-3.753906,-0.101562,-0.472656,0.105469,0.613281,-0.310547,-0.328125
110693.0,8.476562,-3.558594,-3.753906,-0.09375,-0.511719,0.113281,0.558594,-0.292969,-0.306641
110705.0,8.480469,-3.597656,-3.753906,-0.09375,-0.558594,0.128906,0.542969,-0.283203,-0.292969
110724.0,8.4375,-3.558594,-3.753906,-0.132812,-0.535156,0.136719,0.492188,-0.261719,-0.255859
110787.0,8.4375,-3.519531,-3.714844,-0.109375,-0.488281,0.222656,0.410156,-0.205078,-0.109375
110803.0,8.4375,-3.519531,-3.714844,-0.101562,-0.480469,0.152344,0.396484,-0.191406,-0.074219
110826.0,8.398438,-3.480469,-3.753906,-0.125,-0.410156,0.207031,0.382812,-0.171875,-0.050781
110843.0,8.402344,-3.40625,-3.753906,-0.125,-0.367188,0.207031,0.351562,-0.15625,-0.03125
110866.0,8.324219,-3.445312,-3.792969,-0.179688,-0.328125,0.175781,0.330078,-0.138672,-0.011719
110883.0,8.28125,-3.445312,-3.792969,-0.207031,-0.3125,0.136719,0.318359,-0.121094,-0.009766
110897.0,8.285156,-3.40625,-3.792969,-0.207031,-0.25,0.128906,0.308594,-0.111328,-0.003906
110912.0,8.285156,-3.367188,-3.871094,-0.199219,-0.195312,0.128906,0.291016,-0.089844,0.0
110936.0,8.285156,-3.289062,-3.871094,-0.183594,-0.085938,0.082031,0.261719,-0.074219,0.009766
110953.0,8.363281,-3.328125,-3.945312,-0.148438,-0.070312,0.046875,0.234375,-0.0625,0.015625
110973.0,8.441406,-3.328125,-3.984375,-0.0625,-0.09375,0.007812,0.208984,-0.046875,0.013672
110993.0,8.476562,-3.328125,-4.0625,-0.023438,-0.078125,-0.078125,0.1875,-0.037109,0.005859
111012.0,8.4375,-3.367188,-4.097656,0.015625,-0.101562,-0.160156,0.183594,-0.037109,0.001953
111032.0,8.476562,-3.367188,-4.136719,-0.015625,-0.09375,-0.160156,0.173828,-0.037109,-0.005859
111052.0,8.398438,-3.367188,-4.175781,-0.054688,-0.070312,-0.246094,0.175781,-0.044922,-0.007812
111075.0,8.363281,-3.289062,-4.214844,-0.078125,0.03125,-0.292969,0.179688,-0.041016,-0.009766
111092.0,8.363281,-3.289062,-4.253906,-0.085938,0.039062,-0.332031,0.166016,-0.048828,-0.015625
111117.0,8.359375,-3.253906,-4.214844,-0.078125,0.082031,-0.300781,0.154297,-0.050781,-0.019531
111155.0,8.398438,-3.328125,-4.175781,-0.039062,0.015625,-0.261719,0.125,-0.044922,-0.070312
111172.0,8.363281,-3.367188,-4.214844,-0.039062,-0.023438,-0.300781,0.111328,-0.046875,-0.097656
111194.0,8.242188,-3.40625,-4.175781,-0.117188,-0.070312,-0.300781,0.087891,-0.056641,-0.121094
111225.0,8.054688,-3.480469,-4.136719,-0.390625,-0.175781,-0.207031,0.064453,-0.064453,-0.146484
111242.0,7.976562,-3.480469,-4.0625,-0.390625,-0.183594,-0.167969,0.056641,-0.060547,-0.152344
111265.0,8.019531,-3.445312,-4.023438,-0.4375,-0.1875,-0.078125,0.021484,-0.058594,-0.162109
111282.0,8.128906,-3.519531,-4.0625,-0.40625,-0.238281,-0.078125,-0.041016,-0.050781,-0.166016
111302.0,8.324219,-3.636719,-4.0625,-0.175781,-0.378906,-0.101562,-0.097656,-0.056641,-0.171875
111323.0,8.324219,-3.710938,-4.023438,-0.140625,-0.433594,-0.101562,-0.113281,-0.0625,-0.171875
111342.0,8.28125,-3.789062,-3.984375,-0.183594,-0.601562,-0.03125,-0.078125,-0.060547,-0.158203
111366.0,8.476562,-3.75,-4.0625,0.0,-0.648438,-0.054688,-0.0625,-0.056641,-0.140625
111382.0,8.707031,-3.75,-4.136719,0.113281,-0.625,-0.074219,-0.060547,-0.050781,-0.078125
111406.0,8.863281,-3.789062,-4.214844,0.382812,-0.710938,-0.167969,-0.054688,-0.050781,-0.017578
111422.0,8.824219,-3.75,-4.289062,0.382812,-0.710938,-0.207031,-0.025391,-0.058594,0.037109
111444.0,8.625,-3.636719,-4.253906,0.167969,-0.550781,-0.191406,-0.001953,-0.054688,0.068359
111475.0,8.324219,-3.328125,-4.175781,-0.125,-0.195312,-0.105469,0.041016,-0.037109,0.179688
111492.0,8.242188,-3.253906,-4.253906,-0.144531,-0.171875,-0.105469,-0.027344,-0.003906,0.259766
111514.0,8.207031,-3.214844,-4.289062,-0.207031,0.011719,-0.210938,-0.060547,0.003906,0.269531
111532.0,8.164062,-3.214844,-4.253906,-0.238281,0.066406,-0.175781,-0.140625,0.025391,0.25
111555.0,8.164062,-3.253906,-4.253906,-0.214844,0.027344,-0.160156,-0.166016,0.042969,0.199219
111586.0,8.097656,-3.253906,-4.136719,-0.273438,0.042969,-0.035156,-0.193359,0.052734,0.076172
111602.0,8.054688,-3.289062,-4.175781,-0.3125,0.007812,-0.035156,-0.214844,0.064453,-0.007812
111665.0,8.09375,-3.289062,-4.214844,-0.3125,-0.101562,-0.113281,-0.287109,0.119141,-0.146484
111681.0,8.097656,-3.328125,-4.175781,-0.320312,-0.125,-0.074219,-0.347656,0.140625,-0.140625
111702.0,8.09375,-3.367188,-4.136719,-0.300781,-0.257812,-0.066406,-0.40625,0.154297,-0.109375
111721.0,7.976562,-3.40625,-4.175781,-0.351562,-0.273438,-0.027344,-0.433594,0.162109,-0.064453
111741.0,8.054688,-3.480469,-4.136719,-0.460938,-0.421875,-0.066406,-0.419922,0.171875,-0.011719
111766.0,8.164062,-3.558594,-4.175781,-0.324219,-0.582031,-0.082031,-0.402344,0.167969,0.011719
111781.0,8.167969,-3.597656,-4.175781,-0.332031,-0.597656,-0.082031,-0.310547,0.136719,0.072266
111807.0,8.125,-3.519531,-4.175781,-0.371094,-0.566406,-0.082031,-0.230469,0.117188,0.099609
111844.0,7.980469,-3.40625,-4.097656,-0.523438,-0.4375,-0.019531,-0.152344,0.115234,0.134766
111862.0,7.902344,-3.40625,-4.175781,-0.5625,-0.4375,-0.066406,-0.15625,0.117188,0.134766
111876.0,7.863281,-3.367188,-4.175781,-0.675781,-0.421875,-0.113281,-0.15625,0.121094,0.132812
111891.0,7.746094,-3.40625,-4.175781,-0.714844,-0.414062,-0.082031,-0.152344,0.140625,0.119141
111915.0,7.742188,-3.40625,-4.136719,-0.753906,-0.398438,-0.097656,-0.162109,0.146484,0.111328
111931.0,7.742188,-3.40625,-4.136719,-0.714844,-0.398438,-0.105469,-0.205078,0.171875,0.082031
111955.0,7.785156,-3.480469,-4.136719,-0.730469,-0.472656,-0.136719,-0.253906,0.185547,0.060547
111971.0,7.859375,-3.519531,-4.136719,-0.691406,-0.519531,-0.175781,-0.298828,0.212891,0.037109
111991.0,8.015625,-3.636719,-4.214844,-0.554688,-0.613281,-0.199219,-0.349609,0.230469,0.011719
112012.0,8.128906,-3.710938,-4.253906,-0.453125,-0.710938,-0.253906,-0.388672,0.236328,-0.003906
112024.0,8.167969,-3.75,-4.214844,-0.347656,-0.851562,-0.269531,-0.408203,0.238281,-0.013672
112064.0,8.585938,-3.941406,-4.253906,0.003906,-1.066406,-0.339844,-0.380859,0.230469,0.0
112081.0,8.707031,-4.019531,-4.253906,0.027344,-1.082031,-0.308594,-0.345703,0.216797,0.019531
112101.0,8.890625,-4.019531,-4.253906,0.25,-1.214844,-0.371094,-0.302734,0.199219,0.050781
112121.0,8.96875,-4.019531,-4.175781,0.308594,-1.230469,-0.371094,-0.242188,0.175781,0.091797
112142.0,8.820312,-3.980469,-3.984375,0.269531,-1.183594,-0.164062,-0.167969,0.160156,0.138672
112165.0,8.742188,-3.941406,-3.945312,0.042969,-1.082031,-0.070312,-0.09375,0.140625,0.195312
112181.0,8.667969,-3.867188,-3.871094,0.042969,-1.019531,-0.042969,-0.042969,0.123047,0.259766
112205.0,8.820312,-3.75,-3.714844,0.203125,-0.796875,0.089844,-0.03125,0.109375,0.3125
112221.0,8.894531,-3.75,-3.679688,0.292969,-0.757812,0.074219,-0.03125,0.091797,0.357422
112243.0,8.972656,-3.789062,-3.5625,0.394531,-0.703125,0.21875,-0.017578,0.078125,0.384766
112273.0,8.820312,-3.789062,-3.410156,0.273438,-0.59375,0.347656,0.011719,0.076172,0.394531
112290.0,8.707031,-3.75,-3.332031,0.203125,-0.554688,0.339844,0.095703,0.105469,0.398438
112314.0,8.398438,-3.671875,-3.21875,-0.109375,-0.320312,0.492188,0.152344,0.146484,0.400391
112330.0,8.164062,-3.519531,-3.179688,-0.214844,-0.199219,0.515625,0.166016,0.195312,0.40625
112354.0,7.863281,-3.328125,-3.066406,-0.621094,0.195312,0.566406,0.099609,0.240234,0.40625
112371.0,7.707031,-3.214844,-2.988281,-0.691406,0.308594,0.574219,-0.048828,0.296875,0.396484
112390.0,7.78125,-3.175781,-2.910156,-0.761719,0.457031,0.613281,-0.259766,0.359375,0.375
112410.0,7.9375,-3.214844,-2.875,-0.636719,0.503906,0.648438,-0.496094,0.416016,0.322266
112430.0,8.320312,-3.40625,-2.875,-0.300781,0.335938,0.601562,-0.736328,0.46875,0.251953
112450.0,8.480469,-3.445312,-2.835938,-0.078125,0.296875,0.617188,-0.96875,0.515625,0.175781
112471.0,8.507812,-3.597656,-2.71875,0.058594,0.105469,0.679688,-1.179688,0.556641,0.117188
112483.0,8.480469,-3.597656,-2.71875,-0.054688,0.011719,0.710938,-1.273438,0.576172,0.103516
112500.0,8.359375,-3.671875,-2.492188,-0.140625,-0.058594,0.824219,-1.451172,0.617188,0.087891
112521.0,8.359375,-3.671875,-2.527344,-0.203125,-0.132812,0.9375,-1.626953,0.662109,0.107422
112534.0,8.398438,-3.671875,-2.527344,-0.097656,-0.265625,0.816406,-1.734375,0.677734,0.121094
112550.0,8.742188,-3.671875,-2.683594,0.003906,-0.3125,0.816406,-1.982422,0.701172,0.169922
112570.0,9.390625,-3.902344,-2.835938,0.5,-0.539062,0.671875,-2.259766,0.701172,0.234375
112590.0,9.695312,-4.171875,-2.875,0.851562,-0.917969,0.617188,-2.464844,0.673828,0.310547
112610.0,10.078125,-4.515625,-2.796875,1.289062,-1.371094,0.6875,-2.552734,0.623047,0.380859
112640.0,10.277344,-4.859375,-2.527344,1.378906,-1.917969,0.910156,-2.390625,0.511719,0.533203
112660.0,10.050781,-4.859375,-2.453125,1.488281,-2.027344,1.09375,-2.105469,0.439453,0.652344
112680.0,9.394531,-4.746094,-2.222656,0.875,-2.050781,1.328125,-1.644531,0.353516,0.777344
112700.0,8.863281,-4.632812,-2.183594,0.652344,-1.972656,1.425781,-1.111328,0.308594,0.882812
112720.0,8.511719,-4.171875,-2.105469,-0.074219,-1.496094,1.519531,-0.669922,0.298828,0.982422
112753.0,8.324219,-3.597656,-1.953125,-0.304688,-0.441406,1.671875,-0.460938,0.285156,1.058594
112770.0,8.324219,-3.40625,-1.878906,-0.28125,-0.285156,1.695312,-0.453125,0.326172,1.109375
112790.0,8.441406,-3.175781,-1.839844,-0.1875,0.144531,1.707031,-0.578125,0.355469,1.082031
112822.0,8.359375,-3.136719,-1.953125,-0.09375,0.535156,1.59375,-0.753906,0.373047,1.027344
112842.0,8.324219,-3.214844,-1.953125,-0.085938,0.558594,1.585938,-0.990234,0.376953,0.900391
112863.0,8.207031,-3.40625,-1.992188,-0.160156,0.445312,1.5625,-1.029297,0.347656,0.783203
112880.0,8.128906,-3.40625,-2.144531,-0.175781,0.515625,1.492188,-1.009766,0.302734,0.65625
112895.0,8.167969,-3.40625,-2.183594,-0.066406,0.476562,1.324219,-0.994141,0.261719,0.595703
112909.0,8.398438,-3.480469,-2.414062,0.015625,0.492188,1.339844,-0.96875,0.171875,0.486328
112934.0,8.742188,-3.636719,-2.644531,0.476562,0.324219,1.019531,-0.90625,0.072266,0.402344
112950.0,8.894531,-3.671875,-2.644531,0.609375,0.316406,1.050781,-0.785156,-0.027344,0.324219
112970.0,9.316406,-3.828125,-2.71875,0.945312,0.164062,1.105469,-0.548828,-0.119141,0.255859
112989.0,9.351562,-3.828125,-2.796875,1.167969,0.132812,1.054688,-0.21875,-0.214844,0.203125
113009.0,9.128906,-3.902344,-2.835938,1.078125,0.117188,1.054688,0.232422,-0.318359,0.171875
113030.0,8.929688,-3.867188,-2.988281,0.984375,0.097656,1.039062,0.773438,-0.390625,0.144531
113043.0,9.128906,-3.789062,-3.027344,1.394531,0.328125,0.894531,1.052734,-0.394531,0.117188
113059.0,10.429688,-3.75,-3.027344,1.828125,0.421875,0.824219,1.519531,-0.341797,0.019531
113079.0,11.160156,-3.519531,-3.179688,3.011719,0.738281,0.632812,1.761719,-0.332031,-0.097656
113100.0,10.964844,-3.519531,-3.484375,3.125,0.839844,0.539062,1.894531,-0.310547,-0.263672
113125.0,10.011719,-3.175781,-3.5625,2.320312,1.179688,-0.023438,1.875,-0.207031,-0.449219
113152.0,8.859375,-2.523438,-3.984375,0.742188,2.046875,-0.71875,1.339844,-0.066406,-0.658203
113184.0,7.941406,-2.332031,-4.289062,-0.273438,2.152344,-1.132812,0.371094,-0.009766,-0.726562
113199.0,7.746094,-2.523438,-4.289062,-0.425781,2.050781,-1.148438,-0.238281,-0.046875,-0.685547
113223.0,7.863281,-3.023438,-4.328125,-0.472656,1.195312,-1.132812,-0.675781,-0.097656,-0.630859
113240.0,7.941406,-3.328125,-4.214844,-0.496094,0.964844,-1.054688,-0.863281,-0.214844,-0.583984
113263.0,8.246094,-3.902344,-3.832031,-0.160156,0.011719,-0.441406,-0.740234,-0.318359,-0.548828
113279.0,8.507812,-4.210938,-3.640625,-0.0625,-0.214844,-0.277344,-0.277344,-0.376953,-0.527344
113294.0,8.667969,-4.285156,-3.5625,0.382812,-0.628906,-0.078125,0.050781,-0.400391,-0.517578
113309.0,9.046875,-4.402344,-3.714844,0.488281,-0.707031,-0.09375,0.767578,-0.451172,-0.482422
113321.0,9.167969,-4.285156,-3.753906,0.710938,-0.613281,-0.191406,1.082031,-0.460938,-0.451172
113340.0,9.207031,-3.558594,-3.871094,0.742188,-0.117188,-0.351562,1.507812,-0.476562,-0.353516
113360.0,9.246094,-3.289062,-3.871094,0.789062,0.273438,-0.375,1.621094,-0.423828,-0.222656
113379.0,8.96875,-2.871094,-3.792969,0.648438,0.804688,-0.394531,1.435547,-0.347656,-0.126953
113403.0,8.550781,-2.679688,-3.679688,0.128906,1.210938,-0.28125,1.056641,-0.279297,-0.054688
113420.0,8.128906,-2.5625,-3.523438,-0.09375,1.320312,-0.21875,0.595703,-0.208984,-0.025391
113459.0,7.320312,-2.792969,-3.371094,-1.003906,1.273438,-0.027344,-0.123047,-0.089844,-0.068359
113473.0,7.289062,-2.945312,-3.332031,-1.195312,0.90625,0.113281,-0.179688,-0.068359,-0.103516
113488.0,7.289062,-3.214844,-3.257812,-1.164062,0.816406,0.15625,-0.181641,-0.042969,-0.230469
113512.0,7.597656,-3.40625,-3.371094,-0.851562,0.40625,0.074219,-0.082031,-0.025391,-0.378906
113528.0,7.863281,-3.445312,-3.410156,-0.714844,0.335938,0.042969,0.013672,-0.009766,-0.533203
113583.0,7.980469,-3.367188,-3.601562,-0.625,0.070312,-0.171875,-0.017578,0.082031,-0.767578
113598.0,7.941406,-3.445312,-3.640625,-0.703125,-0.039062,-0.179688,-0.091797,0.136719,-0.779297
113627.0,7.898438,-3.558594,-3.832031,-0.828125,-0.402344,-0.441406,-0.140625,0.164062,-0.75
113658.0,7.78125,-3.828125,-3.832031,-1.058594,-0.84375,-0.539062,-0.042969,0.177734,-0.634766
113679.0,7.742188,-3.867188,-3.871094,-1.105469,-1.03125,-0.535156,0.066406,0.173828,-0.560547
113693.0,7.820312,-3.867188,-3.90625,-0.992188,-1.054688,-0.648438,0.111328,0.175781,-0.519531
113708.0,8.097656,-3.828125,-3.984375,-0.9375,-1.132812,-0.671875,0.152344,0.177734,-0.4375
113732.0,8.480469,-3.828125,-4.023438,-0.484375,-1.234375,-0.796875,0.146484,0.185547,-0.402344
113748.0,8.785156,-3.867188,-4.136719,-0.347656,-1.339844,-0.859375,0.072266,0.185547,-0.292969
113771.0,8.933594,-3.980469,-4.253906,-0.074219,-1.488281,-1.105469,0.044922,0.177734,-0.255859
113803.0,9.085938,-4.171875,-4.253906,0.054688,-1.71875,-1.144531,0.076172,0.115234,-0.115234
113819.0,9.050781,-4.171875,-4.136719,0.054688,-1.726562,-1.113281,0.173828,0.056641,-0.056641
113842.0,8.890625,-4.09375,-3.945312,-0.144531,-1.632812,-0.867188,0.230469,0.021484,-0.021484
113858.0,9.046875,-4.019531,-3.945312,-0.105469,-1.550781,-0.867188,0.347656,-0.025391,0.064453
113873.0,9.203125,-4.058594,-3.984375,0.402344,-1.585938,-0.953125,0.361328,-0.029297,0.085938
113889.0,9.890625,-4.132812,-4.0625,0.640625,-1.601562,-1.0,0.330078,-0.039062,0.119141
113912.0,10.351562,-4.210938,-3.90625,1.34375,-1.617188,-0.851562,0.257812,-0.054688,0.142578
113929.0,10.394531,-4.210938,-3.640625,1.421875,-1.625,-0.738281,0.214844,-0.046875,0.193359
113952.0,9.773438,-4.019531,-3.371094,0.792969,-1.316406,-0.316406,0.179688,0.009766,0.275391
113982.0,8.363281,-3.519531,-3.21875,-0.601562,-0.699219,-0.1875,0.09375,0.091797,0.384766
113998.0,7.671875,-3.214844,-3.140625,-0.976562,-0.5,-0.125,-0.220703,0.228516,0.599609
114022.0,6.976562,-2.832031,-3.101562,-1.933594,0.183594,-0.117188,-0.583984,0.324219,0.771484
114038.0,6.941406,-2.679688,-2.988281,-1.964844,0.316406,-0.089844,-1.0625,0.400391,0.927734
114062.0,7.132812,-2.601562,-2.988281,-1.710938,0.617188,-0.003906,-1.646484,0.431641,1.029297
114080.0,7.519531,-2.792969,-3.027344,-1.28125,0.496094,0.011719,-2.1875,0.417969,1.048828
114107.0,8.972656,-3.519531,-3.371094,-0.199219,-0.039062,-0.085938,-2.837891,0.314453,0.939453
114132.0,10.160156,-3.941406,-3.601562,1.472656,-0.652344,-0.25,-3.173828,0.126953,0.865234
114148.0,10.695312,-4.324219,-3.410156,1.8125,-0.875,-0.023438,-3.212891,-0.087891,0.833984
114171.0,10.777344,-4.824219,-2.835938,2.21875,-1.683594,0.960938,-2.849609,-0.291016,0.832031
114190.0,10.582031,-4.976562,-2.605469,2.058594,-1.867188,1.316406,-2.046875,-0.478516,0.847656
114208.0,9.894531,-5.359375,-1.914062,1.652344,-2.234375,2.085938,-0.958984,-0.582031,0.882812
114227.0,9.589844,-5.207031,-1.992188,1.410156,-2.164062,2.359375,0.216797,-0.632812,0.941406
114248.0,9.433594,-4.210938,-2.222656,1.214844,-1.21875,2.261719,1.113281,-0.621094,1.035156
114271.0,9.46875,-3.710938,-2.296875,1.449219,0.046875,2.085938,1.412109,-0.607422,1.091797
114288.0,9.550781,-3.367188,-2.296875,1.554688,0.386719,2.0625,1.789062,-0.451172,1.246094
114300.0,9.625,-3.214844,-2.183594,1.8125,1.074219,2.105469,1.730469,-0.382812,1.269531
114328.0,9.929688,-2.523438,-1.953125,2.21875,1.984375,2.203125,1.166016,-0.179688,1.318359
114349.0,9.96875,-2.332031,-1.914062,2.5,2.714844,2.164062,0.886719,-0.117188,1.320312
114382.0,9.625,-2.484375,-2.070312,2.351562,2.875,1.96875,-0.029297,0.039062,1.289062
114397.0,9.351562,-2.714844,-2.144531,2.296875,2.796875,1.984375,-0.609375,0.089844,1.207031
114422.0,9.011719,-2.640625,-2.527344,1.964844,2.960938,1.613281,-0.798828,0.083984,1.126953
114437.0,8.863281,-2.640625,-2.527344,1.957031,3.0,1.644531,-0.84375,0.066406,1.054688
114469.0,8.585938,-2.90625,-2.796875,1.800781,2.875,1.523438,-0.716797,0.054688,0.955078
114490.0,8.398438,-3.0625,-2.910156,1.695312,2.78125,1.449219,-0.482422,0.041016,0.796875
114507.0,8.207031,-3.0625,-2.949219,1.613281,2.8125,1.457031,0.009766,0.029297,0.478516
114531.0,8.015625,-2.90625,-3.066406,1.40625,3.046875,1.269531,0.339844,0.046875,0.238281
114547.0,7.9375,-2.832031,-3.101562,1.367188,3.113281,1.238281,0.599609,0.072266,-0.03125
114571.0,8.019531,-2.640625,-3.21875,1.359375,3.398438,0.945312,0.732422,0.119141,-0.337891
114587.0,8.058594,-2.523438,-3.371094,1.367188,3.46875,0.808594,0.708984,0.173828,-0.652344
114607.0,8.097656,-2.523438,-3.523438,1.265625,3.507812,0.5,0.552734,0.255859,-0.978516
114627.0,8.09375,-2.5625,-3.640625,1.242188,3.421875,0.40625,0.298828,0.349609,-1.300781
114647.0,8.128906,-2.640625,-3.792969,0.976562,3.117188,0.082031,0.021484,0.429688,-1.580078
114671.0,8.28125,-2.871094,-4.097656,0.832031,2.464844,-0.410156,-0.103516,0.460938,-1.705078
114687.0,8.402344,-3.097656,-4.328125,0.742188,2.1875,-0.519531,-0.335938,0.507812,-2.017578
114711.0,8.742188,-3.480469,-4.480469,0.804688,1.160156,-0.902344,-0.404297,0.464844,-2.152344
114727.0,9.050781,-3.671875,-4.445312,0.832031,0.839844,-0.917969,-0.386719,0.392578,-2.246094
114739.0,9.242188,-3.789062,-4.328125,0.960938,0.25,-0.796875,-0.341797,0.361328,-2.269531
114767.0,9.664062,-4.324219,-4.0625,1.0625,-0.539062,-0.605469,-0.039062,0.244141,-2.261719
114797.0,9.8125,-4.667969,-3.679688,1.042969,-1.5625,-0.292969,0.478516,0.126953,-2.144531
114820.0,9.890625,-4.746094,-3.871094,0.960938,-2.238281,-0.535156,0.832031,0.042969,-1.988281
114850.0,9.550781,-4.667969,-4.023438,0.484375,-2.558594,-0.757812,1.146484,-0.046875,-1.757812
114867.0,9.3125,-4.554688,-3.871094,0.339844,-2.585938,-0.742188,1.453125,-0.15625,-1.357422
114890.0,9.128906,-4.402344,-3.601562,-0.03125,-2.613281,-0.398438,1.507812,-0.177734,-1.224609
114907.0,8.972656,-4.285156,-3.410156,-0.152344,-2.582031,-0.289062,1.519531,-0.203125,-0.837891
114930.0,8.824219,-4.171875,-3.292969,-0.375,-2.515625,-0.113281,1.392578,-0.207031,-0.615234
114949.0,8.785156,-4.132812,-3.292969,-0.421875,-2.484375,-0.121094,1.189453,-0.222656,-0.414062
114976.0,8.585938,-4.019531,-3.066406,-0.566406,-2.371094,0.078125,0.904297,-0.230469,-0.177734
115001.0,8.546875,-4.019531,-3.101562,-0.636719,-2.332031,0.09375,0.775391,-0.230469,-0.076172
115017.0,8.550781,-4.019531,-3.140625,-0.667969,-2.316406,0.136719,0.689453,-0.21875,0.005859
115040.0,8.550781,-3.980469,-3.21875,-0.605469,-2.199219,0.007812,0.630859,-0.210938,0.072266
115057.0,8.480469,-3.941406,-3.21875,-0.597656,-2.175781,0.015625,0.613281,-0.193359,0.138672
115071.0,8.511719,-3.980469,-3.179688,-0.621094,-2.035156,0.03125,0.609375,-0.185547,0.173828
115087.0,8.511719,-3.828125,-3.257812,-0.648438,-1.953125,-0.007812,0.595703,-0.171875,0.240234
115120.0,8.664062,-3.636719,-3.332031,-0.410156,-1.550781,-0.074219,0.550781,-0.158203,0.320312
115142.0,8.78125,-3.597656,-3.371094,-0.265625,-1.394531,-0.105469,0.4375,-0.136719,0.460938
115167.0,8.785156,-3.519531,-3.371094,-0.28125,-1.238281,-0.058594,0.337891,-0.101562,0.589844
115196.0,8.820312,-3.40625,-3.371094,-0.210938,-1.027344,-0.136719,0.236328,-0.056641,0.693359
115220.0,8.785156,-3.328125,-3.371094,-0.125,-0.585938,-0.105469,0.169922,-0.023438,0.75
115237.0,8.785156,-3.253906,-3.449219,-0.140625,-0.507812,-0.144531,0.103516,0.003906,0.789062
115259.0,8.703125,-3.214844,-3.410156,-0.117188,-0.175781,-0.160156,0.042969,0.025391,0.8125
115277.0,8.707031,-3.136719,-3.449219,-0.085938,-0.058594,-0.160156,-0.021484,0.042969,0.8125
115291.0,8.746094,-3.136719,-3.449219,-0.039062,0.121094,-0.207031,-0.060547,0.048828,0.808594
115306.0,8.667969,-3.0625,-3.484375,-0.050781,0.230469,-0.242188,-0.128906,0.064453,0.787109
115329.0,8.589844,-3.0625,-3.484375,-0.050781,0.460938,-0.25,-0.164062,0.068359,0.773438
115346.0,8.507812,-3.023438,-3.523438,-0.066406,0.5625,-0.242188,-0.259766,0.078125,0.693359
115369.0,8.441406,-2.984375,-3.449219,-0.109375,0.75,-0.199219,-0.310547,0.080078,0.626953
115386.0,8.398438,-3.023438,-3.449219,-0.125,0.75,-0.152344,-0.341797,0.083984,0.546875
115406.0,8.402344,-3.023438,-3.410156,-0.132812,0.859375,-0.144531,-0.357422,0.082031,0.447266
115426.0,8.441406,-3.023438,-3.449219,-0.0625,0.875,-0.128906,-0.361328,0.080078,0.347656
115446.0,8.398438,-3.023438,-3.484375,0.0,0.953125,-0.1875,-0.369141,0.072266,0.246094
115470.0,8.4375,-3.0625,-3.449219,0.023438,0.898438,-0.121094,-0.369141,0.064453,0.199219
115489.0,8.441406,-3.0625,-3.410156,0.023438,0.898438,-0.074219,-0.34375,0.042969,0.064453
115516.0,8.546875,-3.136719,-3.449219,0.105469,0.800781,-0.042969,-0.251953,0.025391,-0.050781
115536.0,8.589844,-3.214844,-3.449219,0.136719,0.785156,-0.082031,-0.189453,0.011719,-0.119141
115555.0,8.589844,-3.214844,-3.449219,0.167969,0.660156,-0.058594,-0.126953,0.003906,-0.169922
115580.0,8.625,-3.175781,-3.449219,0.183594,0.644531,-0.042969,-0.103516,-0.003906,-0.191406
115596.0,8.625,-3.175781,-3.449219,0.214844,0.582031,-0.042969,-0.050781,-0.013672,-0.242188
115620.0,8.589844,-3.175781,-3.410156,0.113281,0.558594,0.011719,-0.037109,-0.021484,-0.269531
115635.0,8.585938,-3.214844,-3.410156,0.097656,0.488281,0.011719,-0.039062,-0.021484,-0.291016
115659.0,8.589844,-3.289062,-3.410156,0.074219,0.335938,0.027344,-0.027344,-0.029297,-0.3125
115676.0,8.628906,-3.328125,-3.410156,0.097656,0.304688,-0.011719,-0.003906,-0.035156,-0.330078
115690.0,8.628906,-3.367188,-3.410156,0.082031,0.132812,-0.003906,0.013672,-0.039062,-0.341797
115729.0,8.707031,-3.40625,-3.371094,0.117188,0.007812,0.082031,0.078125,-0.052734,-0.365234
115745.0,8.707031,-3.40625,-3.410156,0.101562,-0.054688,0.082031,0.130859,-0.060547,-0.371094
115769.0,8.707031,-3.40625,-3.410156,0.070312,-0.09375,0.042969,0.15625,-0.064453,-0.363281
115786.0,8.742188,-3.445312,-3.371094,0.101562,-0.164062,0.082031,0.171875,-0.060547,-0.347656
115806.0,8.703125,-3.445312,-3.410156,0.046875,-0.210938,0.050781,0.173828,-0.054688,-0.320312
115839.0,8.664062,-3.445312,-3.410156,-0.019531,-0.296875,0.042969,0.181641,-0.044922,-0.277344
115855.0,8.625,-3.480469,-3.410156,-0.066406,-0.3125,0.042969,0.191406,-0.033203,-0.253906
115875.0,8.589844,-3.480469,-3.449219,-0.082031,-0.378906,-0.003906,0.191406,-0.021484,-0.230469
115896.0,8.585938,-3.480469,-3.410156,-0.089844,-0.402344,0.027344,0.189453,-0.011719,-0.210938
115910.0,8.625,-3.480469,-3.410156,-0.066406,-0.425781,0.019531,0.181641,-0.007812,-0.203125
115926.0,8.589844,-3.480469,-3.484375,-0.113281,-0.441406,0.011719,0.160156,0.003906,-0.191406
115948.0,8.589844,-3.480469,-3.523438,-0.167969,-0.472656,-0.117188,0.150391,0.007812,-0.185547
115966.0,8.550781,-3.519531,-3.484375,-0.175781,-0.488281,-0.117188,0.128906,0.021484,-0.160156
115981.0,8.550781,-3.519531,-3.523438,-0.261719,-0.503906,-0.09375,0.117188,0.029297,-0.160156
116019.0,8.480469,-3.480469,-3.5625,-0.320312,-0.542969,-0.195312,0.080078,0.033203,-0.130859
116035.0,8.511719,-3.519531,-3.601562,-0.328125,-0.550781,-0.234375,0.037109,0.03125,-0.099609
116058.0,8.511719,-3.558594,-3.601562,-0.300781,-0.652344,-0.25,0.039062,0.021484,-0.076172
116075.0,8.511719,-3.558594,-3.5625,-0.261719,-0.691406,-0.210938,0.054688,0.013672,-0.052734
116090.0,8.589844,-3.558594,-3.601562,-0.222656,-0.652344,-0.21875,0.058594,0.013672,-0.042969
116105.0,8.667969,-3.558594,-3.601562,-0.191406,-0.652344,-0.21875,0.0625,0.003906,-0.009766
116129.0,8.667969,-3.519531,-3.601562,-0.144531,-0.613281,-0.265625,0.054688,-0.003906,0.027344
116145.0,8.667969,-3.519531,-3.5625,-0.144531,-0.605469,-0.265625,0.050781,-0.009766,0.0625
116169.0,8.707031,-3.480469,-3.523438,-0.101562,-0.542969,-0.1875,0.060547,-0.011719,0.095703
116185.0,8.707031,-3.445312,-3.523438,-0.128906,-0.492188,-0.1875,0.068359,-0.013672,0.132812
116199.0,8.707031,-3.445312,-3.523438,-0.085938,-0.421875,-0.148438,0.066406,-0.017578,0.152344
116255.0,8.707031,-3.328125,-3.410156,-0.089844,-0.242188,-0.148438,0.029297,-0.005859,0.197266
116278.0,8.664062,-3.253906,-3.371094,-0.066406,-0.121094,-0.035156,0.001953,0.001953,0.195312
116295.0,8.664062,-3.253906,-3.371094,-0.058594,-0.097656,-0.035156,-0.03125,0.017578,0.185547
116309.0,8.664062,-3.253906,-3.332031,-0.050781,-0.066406,0.003906,-0.042969,0.023438,0.177734
116325.0,8.625,-3.214844,-3.292969,-0.050781,-0.050781,0.003906,-0.074219,0.035156,0.160156
116348.0,8.664062,-3.214844,-3.292969,-0.035156,0.019531,0.042969,-0.09375,0.044922,0.134766
116365.0,8.664062,-3.214844,-3.257812,-0.027344,0.035156,0.042969,-0.113281,0.050781,0.113281
116385.0,8.703125,-3.214844,-3.257812,0.007812,0.050781,0.117188,-0.125,0.068359,0.09375
116405.0,8.742188,-3.214844,-3.21875,0.015625,0.097656,0.070312,-0.148438,0.082031,0.076172
116418.0,8.742188,-3.214844,-3.21875,0.085938,0.097656,0.109375,-0.167969,0.089844,0.066406
116435.0,8.820312,-3.175781,-3.257812,0.125,0.097656,0.0625,-0.199219,0.105469,0.052734
116458.0,8.824219,-3.214844,-3.257812,0.125,0.058594,0.0625,-0.230469,0.117188,0.041016
116475.0,8.859375,-3.214844,-3.257812,0.164062,0.050781,0.019531,-0.242188,0.126953,0.025391
116490.0,8.78125,-3.253906,-3.257812,0.117188,0.003906,0.046875,-0.240234,0.128906,0.021484
116505.0,8.78125,-3.214844,-3.332031,0.109375,-0.003906,0.054688,-0.232422,0.132812,0.013672
116527.0,8.746094,-3.175781,-3.332031,0.023438,0.058594,-0.035156,-0.232422,0.130859,0.007812
116559.0,8.667969,-3.175781,-3.332031,-0.066406,0.042969,-0.050781,-0.248047,0.130859,0.009766
116574.0,8.664062,-3.214844,-3.332031,-0.066406,-0.003906,-0.089844,-0.253906,0.126953,0.001953
116614.0,8.707031,-3.175781,-3.410156,-0.046875,-0.035156,-0.144531,-0.251953,0.117188,-0.015625
116638.0,8.742188,-3.214844,-3.410156,-0.015625,-0.066406,-0.144531,-0.251953,0.113281,-0.019531
116654.0,8.746094,-3.214844,-3.449219,-0.03125,-0.074219,-0.191406,-0.251953,0.103516,-0.023438
116677.0,8.703125,-3.175781,-3.449219,-0.078125,-0.066406,-0.191406,-0.261719,0.097656,-0.019531
116707.0,8.664062,-3.214844,-3.410156,-0.113281,-0.128906,-0.152344,-0.265625,0.091797,-0.015625
116724.0,8.628906,-3.214844,-3.449219,-0.160156,-0.144531,-0.152344,-0.265625,0.074219,-0.007812
116747.0,8.664062,-3.214844,-3.410156,-0.136719,-0.167969,-0.144531,-0.263672,0.072266,-0.007812
116788.0,8.742188,-3.214844,-3.371094,0.007812,-0.019531,-0.003906,-0.25,0.048828,0.001953
116805.0,8.703125,-3.214844,-3.371094,0.0,0.011719,-0.003906,-0.259766,0.042969,0.003906
116818.0,8.703125,-3.214844,-3.332031,-0.039062,-0.003906,0.050781,-0.257812,0.046875,0.007812
116857.0,8.703125,-3.253906,-3.292969,-0.046875,-0.113281,0.097656,-0.279297,0.050781,0.025391
116874.0,8.703125,-3.253906,-3.292969,-0.039062,-0.074219,0.105469,-0.291016,0.044922,0.029297
116895.0,8.742188,-3.253906,-3.21875,0.007812,-0.128906,0.140625,-0.283203,0.044922,0.041016
116914.0,8.742188,-3.253906,-3.21875,0.007812,-0.164062,0.1875,-0.275391,0.044922,0.052734
116934.0,8.785156,-3.253906,-3.179688,0.0,-0.128906,0.179688,-0.257812,0.046875,0.074219
116959.0,8.785156,-3.214844,-3.179688,0.046875,-0.089844,0.21875,-0.255859,0.052734,0.085938
116984.0,8.820312,-3.175781,-3.21875,0.078125,-0.082031,0.171875,-0.251953,0.056641,0.103516
117005.0,8.785156,-3.175781,-3.21875,0.046875,-0.074219,0.203125,-0.253906,0.058594,0.115234
117038.0,8.742188,-3.136719,-3.21875,0.007812,0.019531,0.148438,-0.242188,0.058594,0.142578
117054.0,8.78125,-3.136719,-3.257812,0.007812,-0.003906,0.109375,-0.21875,0.060547,0.158203
117077.0,8.78125,-3.136719,-3.21875,0.054688,0.058594,0.132812,-0.193359,0.056641,0.167969
117094.0,8.78125,-3.097656,-3.257812,0.054688,0.097656,0.09375,-0.173828,0.052734,0.171875
117112.0,8.742188,-3.097656,-3.257812,0.015625,0.113281,0.042969,-0.166016,0.052734,0.177734
117133.0,8.78125,-3.0625,-3.292969,0.023438,0.128906,0.078125,-0.158203,0.046875,0.181641
117154.0,8.742188,-3.0625,-3.292969,0.03125,0.179688,0.035156,-0.154297,0.048828,0.183594
117218.0,8.785156,-3.023438,-3.292969,0.09375,0.257812,0.019531,-0.109375,0.052734,0.175781
117235.0,8.746094,-3.023438,-3.292969,0.046875,0.234375,-0.019531,-0.103516,0.052734,0.167969
117257.0,8.707031,-2.984375,-3.332031,0.023438,0.3125,-0.027344,-0.101562,0.056641,0.158203
117274.0,8.667969,-2.984375,-3.332031,-0.019531,0.320312,-0.074219,-0.101562,0.056641,0.144531
117288.0,8.667969,-2.984375,-3.371094,-0.011719,0.3125,-0.113281,-0.099609,0.052734,0.138672
117303.0,8.589844,-2.984375,-3.332031,-0.089844,0.3125,-0.035156,-0.076172,0.044922,0.125
117327.0,8.589844,-2.984375,-3.332031,-0.082031,0.296875,-0.035156,-0.050781,0.035156,0.103516
117343.0,8.589844,-3.023438,-3.371094,-0.082031,0.257812,-0.035156,-0.013672,0.027344,0.080078
117367.0,8.589844,-3.023438,-3.371094,-0.074219,0.273438,-0.082031,0.033203,0.019531,0.060547
117383.0,8.667969,-3.023438,-3.371094,-0.035156,0.28125,-0.089844,0.060547,0.015625,0.037109
117423.0,8.707031,-2.984375,-3.371094,0.039062,0.328125,-0.058594,0.066406,0.013672,0.005859
117443.0,8.707031,-3.023438,-3.332031,0.085938,0.296875,-0.105469,0.0625,0.015625,-0.011719
117463.0,8.742188,-3.0625,-3.371094,0.085938,0.28125,-0.105469,0.064453,0.019531,-0.021484
117483.0,8.664062,-3.0625,-3.332031,0.039062,0.28125,-0.074219,0.066406,0.025391,-0.027344
117506.0,8.664062,-3.0625,-3.292969,0.003906,0.25,-0.050781,0.066406,0.025391,-0.033203
117516.0,8.703125,-3.0625,-3.292969,0.03125,0.242188,-0.050781,0.064453,0.029297,-0.046875
117546.0,8.664062,-3.097656,-3.332031,-0.011719,0.191406,-0.105469,0.066406,0.029297,-0.060547
117563.0,8.664062,-3.097656,-3.292969,0.023438,0.183594,-0.074219,0.070312,0.03125,-0.082031
117586.0,8.703125,-3.097656,-3.257812,0.007812,0.167969,-0.054688,0.064453,0.041016,-0.103516
117603.0,8.703125,-3.097656,-3.257812,0.0,0.152344,-0.015625,0.052734,0.048828,-0.123047
117623.0,8.703125,-3.136719,-3.257812,0.03125,0.097656,-0.070312,0.041016,0.054688,-0.136719
117644.0,8.703125,-3.136719,-3.257812,-0.015625,0.035156,-0.078125,0.017578,0.070312,-0.146484
117663.0,8.707031,-3.175781,-3.257812,-0.03125,0.050781,-0.09375,-0.003906,0.085938,-0.150391
117686.0,8.707031,-3.175781,-3.292969,-0.054688,-0.042969,-0.144531,-0.021484,0.091797,-0.150391
117703.0,8.703125,-3.214844,-3.292969,-0.054688,-0.089844,-0.117188,-0.0625,0.101562,-0.158203
117726.0,8.703125,-3.253906,-3.292969,-0.085938,-0.183594,-0.175781,-0.070312,0.097656,-0.15625
117742.0,8.667969,-3.289062,-3.257812,-0.128906,-0.199219,-0.183594,-0.064453,0.089844,-0.152344
117766.0,8.746094,-3.328125,-3.257812,-0.078125,-0.320312,-0.15625,-0.033203,0.078125,-0.148438
117783.0,8.746094,-3.367188,-3.257812,-0.078125,-0.335938,-0.125,-0.007812,0.064453,-0.140625
117797.0,8.785156,-3.328125,-3.257812,-0.054688,-0.359375,-0.140625,0.001953,0.056641,-0.130859
117812.0,8.820312,-3.328125,-3.21875,-0.0625,-0.375,-0.179688,0.015625,0.050781,-0.115234
117836.0,8.78125,-3.328125,-3.179688,-0.070312,-0.398438,-0.117188,0.025391,0.046875,-0.089844
117853.0,8.824219,-3.328125,-3.179688,-0.039062,-0.40625,-0.125,0.023438,0.044922,-0.064453
117876.0,8.824219,-3.328125,-3.140625,-0.046875,-0.421875,-0.09375,0.029297,0.039062,-0.033203
117893.0,8.820312,-3.328125,-3.101562,-0.09375,-0.421875,-0.09375,0.03125,0.035156,0.0
117907.0,8.824219,-3.328125,-3.066406,-0.054688,-0.421875,-0.0625,0.037109,0.037109,0.013672
117922.0,8.824219,-3.289062,-3.066406,-0.054688,-0.421875,-0.035156,0.037109,0.035156,0.035156
117945.0,8.820312,-3.289062,-3.027344,-0.054688,-0.367188,-0.003906,0.037109,0.035156,0.044922
117962.0,8.820312,-3.289062,-2.988281,-0.007812,-0.359375,0.027344,0.027344,0.041016,0.052734
117985.0,8.859375,-3.289062,-2.949219,-0.015625,-0.34375,0.050781,0.021484,0.042969,0.060547
118015.0,8.863281,-3.253906,-2.949219,-0.007812,-0.292969,0.042969,0.019531,0.048828,0.064453
118056.0,8.859375,-3.214844,-2.875,0.0,-0.222656,0.09375,0.03125,0.060547,0.074219
118072.0,8.859375,-3.214844,-2.875,0.0,-0.175781,0.019531,0.019531,0.066406,0.089844
118096.0,8.863281,-3.175781,-2.910156,0.0,-0.144531,0.035156,0.005859,0.068359,0.099609
118112.0,8.859375,-3.214844,-2.910156,0.0,-0.136719,-0.011719,0.013672,0.072266,0.111328
118132.0,8.859375,-3.136719,-2.910156,0.042969,-0.121094,0.054688,0.015625,0.072266,0.109375
118153.0,8.863281,-3.175781,-2.910156,0.007812,-0.066406,0.003906,0.03125,0.070312,0.115234
118172.0,8.890625,-3.175781,-2.910156,0.042969,-0.074219,-0.050781,0.029297,0.066406,0.107422
118196.0,8.933594,-3.136719,-2.910156,0.089844,-0.003906,-0.035156,0.035156,0.066406,0.103516
118212.0,8.96875,-3.136719,-2.910156,0.128906,0.003906,-0.082031,0.033203,0.068359,0.095703
118236.0,8.96875,-3.136719,-2.910156,0.105469,0.082031,0.042969,0.025391,0.0625,0.085938
118252.0,8.933594,-3.136719,-2.910156,0.105469,0.050781,0.035156,0.021484,0.060547,0.078125
118276.0,8.863281,-3.136719,-2.949219,-0.007812,0.105469,-0.027344,0.03125,0.052734,0.074219
118292.0,8.859375,-3.136719,-2.910156,-0.007812,0.113281,0.003906,0.042969,0.044922,0.068359
118313.0,8.859375,-3.136719,-2.875,-0.007812,0.121094,0.003906,0.050781,0.037109,0.054688
118332.0,8.859375,-3.097656,-2.875,0.0,0.128906,0.023438,0.054688,0.025391,0.052734
118352.0,8.894531,-3.136719,-2.835938,-0.007812,0.136719,-0.019531,0.064453,0.019531,0.035156
118386.0,8.933594,-3.136719,-2.875,0.074219,0.136719,0.0,0.066406,0.015625,0.013672
118402.0,8.96875,-3.136719,-2.875,0.105469,0.128906,-0.007812,0.056641,0.015625,-0.005859
118423.0,8.929688,-3.175781,-2.875,0.066406,0.121094,-0.007812,0.044922,0.013672,-0.019531
118442.0,8.929688,-3.175781,-2.875,0.050781,0.074219,0.0625,0.025391,0.019531,-0.029297
118463.0,8.894531,-3.136719,-2.910156,0.003906,0.066406,-0.023438,0.005859,0.019531,-0.039062
118495.0,8.894531,-3.214844,-2.835938,-0.003906,-0.003906,0.007812,-0.003906,0.021484,-0.046875
118512.0,8.859375,-3.253906,-2.875,-0.046875,-0.042969,0.007812,-0.011719,0.019531,-0.056641
118526.0,8.859375,-3.253906,-2.835938,-0.011719,-0.058594,0.007812,-0.009766,0.019531,-0.0625
118542.0,8.824219,-3.253906,-2.835938,-0.054688,-0.066406,0.007812,-0.019531,0.015625,-0.066406
118564.0,8.859375,-3.253906,-2.835938,-0.0625,-0.082031,0.0,-0.021484,0.013672,-0.066406
118582.0,8.859375,-3.289062,-2.796875,-0.0625,-0.125,0.007812,-0.037109,0.011719,-0.076172
118605.0,8.863281,-3.328125,-2.835938,-0.0625,-0.179688,0.0,-0.039062,0.005859,-0.076172
118621.0,8.859375,-3.328125,-2.796875,-0.0625,-0.1875,0.0,-0.033203,0.003906,-0.070312
118642.0,8.894531,-3.367188,-2.796875,-0.0625,-0.195312,0.039062,-0.029297,-0.001953,-0.060547
118675.0,8.933594,-3.367188,-2.796875,0.011719,-0.234375,0.046875,-0.009766,0.0,-0.044922
118692.0,8.933594,-3.367188,-2.796875,-0.035156,-0.226562,0.046875,-0.003906,-0.001953,-0.033203
118706.0,8.894531,-3.367188,-2.796875,-0.027344,-0.21875,0.039062,0.0,-0.001953,-0.027344
118745.0,8.972656,-3.367188,-2.71875,0.042969,-0.195312,0.109375,-0.007812,0.011719,-0.007812
118762.0,8.890625,-3.367188,-2.757812,0.050781,-0.1875,0.070312,-0.017578,0.019531,0.001953
118784.0,8.890625,-3.289062,-2.757812,-0.035156,-0.085938,0.054688,-0.021484,0.023438,0.005859
118801.0,8.890625,-3.289062,-2.757812,-0.027344,-0.117188,0.046875,-0.056641,0.042969,0.025391
118821.0,8.863281,-3.289062,-2.757812,-0.070312,-0.070312,0.078125,-0.076172,0.048828,0.041016
118841.0,8.820312,-3.289062,-2.71875,-0.101562,-0.054688,0.078125,-0.080078,0.046875,0.044922
118862.0,8.78125,-3.289062,-2.796875,-0.09375,-0.039062,0.0625,-0.074219,0.046875,0.044922
118894.0,8.785156,-3.328125,-2.757812,-0.125,-0.054688,0.007812,-0.068359,0.042969,0.054688
118911.0,8.820312,-3.289062,-2.71875,-0.078125,-0.054688,0.007812,-0.066406,0.052734,0.050781
118925.0,8.820312,-3.328125,-2.683594,-0.078125,-0.007812,0.074219,-0.066406,0.050781,0.052734
118941.0,8.863281,-3.328125,-2.71875,-0.03125,-0.039062,0.074219,-0.072266,0.054688,0.054688
118965.0,8.820312,-3.289062,-2.683594,-0.0625,0.007812,0.058594,-0.087891,0.058594,0.054688
118981.0,8.78125,-3.253906,-2.71875,-0.0625,0.050781,0.050781,-0.113281,0.066406,0.056641
118996.0,8.78125,-3.253906,-2.683594,-0.140625,0.058594,0.050781,-0.123047,0.066406,0.064453
119011.0,8.746094,-3.289062,-2.644531,-0.132812,0.023438,0.042969,-0.144531,0.072266,0.0625
119035.0,8.707031,-3.289062,-2.683594,-0.164062,0.03125,0.027344,-0.15625,0.076172,0.066406
119051.0,8.707031,-3.289062,-2.644531,-0.15625,0.066406,0.066406,-0.162109,0.074219,0.066406
119075.0,8.820312,-3.289062,-2.683594,-0.03125,0.039062,0.019531,-0.173828,0.074219,0.072266
119091.0,8.863281,-3.328125,-2.683594,-0.023438,-0.007812,0.011719,-0.183594,0.066406,0.072266
119105.0,8.863281,-3.367188,-2.683594,0.023438,-0.039062,0.011719,-0.179688,0.060547,0.068359
119144.0,8.820312,-3.40625,-2.683594,-0.015625,-0.078125,0.019531,-0.146484,0.044922,0.056641
119163.0,8.820312,-3.367188,-2.683594,-0.007812,-0.03125,0.019531,-0.134766,0.042969,0.064453
119190.0,8.785156,-3.328125,-2.644531,-0.046875,0.015625,0.058594,-0.136719,0.035156,0.082031
119215.0,8.890625,-3.40625,-2.71875,0.074219,-0.054688,-0.015625,-0.140625,0.029297,0.091797
119230.0,8.929688,-3.367188,-2.71875,0.121094,-0.054688,-0.007812,-0.146484,0.013672,0.119141
119255.0,8.96875,-3.445312,-2.71875,0.167969,-0.070312,0.007812,-0.123047,-0.005859,0.128906
119271.0,9.007812,-3.445312,-2.683594,0.175781,-0.0625,0.042969,-0.072266,-0.017578,0.134766
119294.0,9.164062,-3.445312,-2.71875,0.382812,-0.03125,0.023438,-0.027344,-0.033203,0.132812
119311.0,9.203125,-3.445312,-2.757812,0.390625,-0.023438,-0.015625,0.009766,-0.048828,0.136719
119326.0,9.207031,-3.40625,-2.757812,0.398438,0.078125,-0.007812,0.021484,-0.060547,0.138672
119351.0,9.046875,-3.367188,-2.71875,0.375,0.109375,0.0,0.085938,-0.0625,0.142578
119370.0,8.933594,-3.253906,-2.757812,0.277344,0.210938,0.007812,0.089844,-0.0625,0.140625
119395.0,8.894531,-3.136719,-2.757812,0.175781,0.410156,0.015625,0.083984,-0.054688,0.138672
