Time,ax,ay,az,lax,lay,laz,gx,gy,gz
594263.0,-0.1875,-4.429688,8.992188,0.25,1.039062,0.796875,-0.59375,0.158203,0.023438
594280.0,0.195312,-3.394531,9.945312,0.535156,1.5625,1.179688,-1.794922,0.357422,-0.082031
594295.0,-0.648438,-2.628906,10.949219,1.722656,4.617188,3.660156,-2.90625,0.193359,-0.134766
594310.0,1.304688,-0.40625,12.25,1.148438,4.429688,4.628906,-5.361328,-0.001953,-0.224609
594322.0,1.421875,-1.367188,12.746094,1.890625,5.523438,5.707031,-6.390625,0.042969,-0.173828
594350.0,4.832031,-30.058594,22.785156,3.96875,-5.378906,12.042969,-9.464844,4.033203,2.845703
594372.0,1.957031,-41.972656,16.921875,4.136719,-33.027344,13.273438,-7.738281,6.550781,4.396484
594391.0,-2.21875,-19.144531,-11.5,0.507812,-10.25,-14.953125,1.070312,6.921875,0.195312
594419.0,-1.757812,4.6875,-24.5625,-1.109375,8.085938,-25.316406,-0.15625,-0.449219,-0.162109
594442.0,-6.316406,-3.664062,-4.453125,-3.121094,5.109375,-7.992188,-1.675781,-1.628906,-0.851562
594459.0,-5.511719,-0.789062,2.175781,-3.347656,5.824219,-3.484375,-1.765625,-2.464844,0.113281
594482.0,-2.21875,2.503906,7.078125,0.734375,11.527344,3.914062,-1.710938,-2.164062,0.779297
594499.0,-0.109375,1.507812,8.648438,1.960938,11.226562,4.996094,-1.199219,-1.335938,1.878906
594521.0,2.109375,0.011719,6.765625,5.546875,8.941406,3.824219,-0.646484,-1.037109,1.998047
594563.0,5.09375,-0.292969,1.636719,8.972656,8.371094,-1.535156,0.722656,0.001953,0.65625
594579.0,4.328125,-1.367188,0.640625,8.753906,7.941406,-2.164062,0.90625,0.759766,-0.027344
594602.0,0.578125,-5.847656,0.414062,4.5625,2.667969,-2.960938,1.074219,1.105469,-0.210938
594619.0,0.695312,-5.042969,-3.378906,4.117188,2.375,-4.503906,2.179688,1.009766,-0.621094
594636.0,3.71875,-4.316406,-9.890625,4.6875,3.363281,-6.972656,2.058594,0.697266,-1.042969
594659.0,2.339844,-3.703125,-16.175781,8.734375,5.246094,-19.207031,-0.517578,-1.033203,-3.078125
594673.0,-2.5625,-4.582031,-16.636719,-44.066406,5.296875,-26.308594,-2.742188,-1.408203,-3.154297
594699.0,38.734375,-50.128906,51.664062,-55.554688,-50.972656,39.230469,8.861328,-0.966797,-0.808594
594720.0,4.261719,-1.328125,-1.65625,-10.695312,8.527344,38.109375,8.960938,-0.574219,0.0625
594739.0,12.988281,-10.214844,7.957031,-6.511719,17.714844,7.15625,4.949219,-0.835938,0.181641
594764.0,-1.796875,10.125,14.433594,-3.027344,18.03125,4.730469,0.242188,-1.289062,-0.525391
594778.0,3.949219,-4.621094,6.542969,-1.015625,15.351562,5.894531,-1.689453,-0.375,-0.210938
594799.0,-2.484375,-7.226562,7.382812,-2.398438,-3.65625,-1.925781,-0.019531,-0.259766,-0.197266
594824.0,0.847656,-6.117188,8.113281,1.285156,-0.515625,-0.292969,0.095703,-0.136719,-0.058594
594861.0,-1.070312,-4.621094,9.179688,-0.601562,1.019531,0.753906,-0.257812,0.238281,0.181641
594902.0,-0.035156,-3.625,10.222656,0.535156,2.367188,1.984375,-2.011719,0.46875,0.029297
594918.0,0.003906,-0.90625,12.4375,0.699219,3.726562,2.945312,-4.416016,0.623047,-0.134766
594941.0,-0.722656,-0.90625,13.28125,-0.003906,6.429688,6.183594,-6.527344,0.939453,-0.25
594958.0,4.984375,-8.683594,17.953125,4.515625,4.96875,7.925781,-10.501953,3.421875,1.548828
594976.0,-3.863281,-50.898438,31.671875,6.007812,-0.308594,12.128906,-10.193359,4.439453,2.792969
594990.0,4.484375,-65.335938,23.359375,6.804688,-55.917969,19.804688,-8.746094,4.439453,3.460938
595001.0,20.152344,-9.140625,-47.320312,22.683594,0.203125,-50.992188,4.351562,6.625,-2.220703
595029.0,-27.269531,0.894531,-27.96875,-13.296875,15.5625,-49.585938,-2.234375,-0.255859,-1.695312
595052.0,-8.578125,-3.355469,-4.644531,-6.617188,6.253906,-8.207031,-2.517578,-4.150391,-0.240234
595070.0,-3.480469,-1.058594,-1.042969,-1.675781,8.652344,-4.433594,-2.691406,-3.882812,0.386719
595098.0,9.964844,-0.675781,11.332031,10.386719,8.878906,8.90625,-1.189453,-0.449219,1.189453
595119.0,8.96875,-1.097656,9.640625,11.746094,9.292969,8.609375,-0.089844,1.298828,0.261719
595138.0,3.566406,-1.289062,5.011719,7.445312,8.351562,4.214844,0.779297,1.855469,-0.416016
595171.0,-1.835938,2.234375,-2.648438,0.132812,12.164062,-5.449219,0.761719,0.488281,-0.574219
595188.0,-1.871094,2.082031,-3.152344,-0.042969,12.472656,-6.109375,-0.207031,-0.976562,-0.607422
595203.0,-1.414062,0.742188,-2.269531,0.941406,9.546875,-4.660156,-0.414062,-1.294922,-0.392578
595240.0,3.488281,-4.316406,-0.738281,4.894531,5.691406,-3.519531,-0.378906,-1.84375,-0.283203
595281.0,3.070312,4.800781,-10.089844,2.96875,14.785156,-13.164062,1.146484,-4.21875,-3.822266
595298.0,-8.691406,-31.894531,19.640625,-4.734375,21.660156,-18.296875,4.429688,-0.785156,2.283203
595320.0,-28.035156,-21.515625,-15.0625,-28.261719,-12.53125,-20.351562,10.689453,-0.705078,-1.802734
595351.0,3.03125,-0.789062,9.605469,3.171875,6.367188,2.050781,8.125,-0.394531,0.873047
595379.0,-2.90625,0.625,12.675781,-9.777344,3.671875,1.253906,2.974609,-0.802734,0.222656
595398.0,2.570312,-3.050781,12.902344,-3.195312,16.992188,2.664062,-0.425781,-0.523438,-0.474609
595418.0,4.066406,-7.496094,9.144531,3.0,2.496094,4.132812,-1.701172,0.314453,-0.070312
595433.0,-2.027344,-5.503906,8.375,-3.089844,0.105469,-0.625,-1.572266,0.201172,-0.142578
595458.0,-0.761719,-7.722656,7.5,-1.925781,-1.179688,-0.8125,-0.734375,0.0,-0.351562
595480.0,-0.457031,-6.613281,8.148438,0.53125,-0.871094,-0.414062,-0.453125,0.074219,-0.076172
595495.0,-1.757812,-4.929688,8.996094,-0.121094,-0.339844,-0.085938,-0.611328,0.0625,-0.123047
595511.0,-0.226562,-3.96875,9.722656,0.070312,2.507812,1.667969,-1.023438,0.0,-0.261719
595528.0,1.230469,-4.429688,10.023438,1.417969,1.972656,1.570312,-2.955078,-0.259766,-0.197266
595542.0,1.078125,-3.625,10.789062,0.925781,3.757812,4.035156,-3.859375,-0.365234,-0.111328
595557.0,-1.796875,-3.011719,9.644531,0.167969,4.285156,3.675781,-6.181641,-0.222656,-0.089844
595574.0,-1.070312,-5.925781,13.203125,-1.664062,4.761719,2.847656,-7.248047,0.234375,-0.087891
595597.0,0.808594,-54.875,32.207031,-0.160156,-34.210938,25.289062,-6.984375,5.015625,2.09375
595619.0,5.40625,-5.042969,-45.941406,7.023438,4.566406,-49.480469,6.699219,8.099609,-1.630859
595660.0,-16.128906,-8.109375,-9.855469,-14.40625,1.382812,-13.730469,-1.462891,-1.363281,0.142578
595677.0,-1.835938,0.128906,-5.183594,-6.316406,6.035156,-11.492188,-1.625,-2.392578,1.054688
595699.0,3.949219,0.167969,8.953125,5.761719,9.839844,5.546875,-1.509766,-1.8125,1.513672
595730.0,3.644531,-0.445312,8.304688,5.675781,9.21875,5.023438,-0.935547,-1.638672,1.441406
595757.0,-1.375,0.011719,2.097656,1.601562,8.214844,1.773438,0.695312,-0.175781,0.849609
595771.0,-0.457031,1.972656,-1.578125,2.605469,10.800781,-6.199219,0.332031,0.125,1.058594
595788.0,1.191406,-1.441406,-1.699219,3.269531,9.078125,-5.601562,0.091797,0.785156,1.369141
595810.0,1.152344,-0.292969,-2.386719,4.066406,9.042969,-5.804688,0.125,1.056641,1.470703
595826.0,0.921875,1.277344,-2.84375,3.773438,9.480469,-5.460938,-0.435547,1.115234,1.736328
595839.0,1.421875,1.046875,-2.921875,4.914062,10.226562,-6.140625,-0.849609,0.826172,1.611328
595867.0,3.417969,-2.4375,0.605469,6.234375,7.421875,-3.53125,-1.265625,-0.882812,0.371094
595887.0,5.371094,-4.238281,1.40625,8.75,5.792969,-1.78125,-0.830078,-1.068359,-0.291016
595907.0,6.402344,-6.117188,2.175781,9.285156,3.570312,-0.742188,0.111328,-1.271484,-1.5625
595921.0,7.511719,-4.890625,0.640625,11.199219,7.9375,-5.878906,0.304688,-1.417969,-2.570312
595936.0,-49.867188,-16.613281,-15.675781,-10.800781,14.996094,-18.957031,-3.4375,-3.0625,-0.679688
595960.0,14.90625,-56.105469,65.109375,16.898438,-47.160156,60.683594,16.691406,-4.865234,-2.400391
595977.0,-8.347656,9.78125,49.40625,-5.640625,11.78125,-33.667969,9.248047,-3.708984,-1.166016
595999.0,-9.496094,-5.769531,26.386719,-8.472656,0.933594,18.84375,6.738281,-0.630859,-1.298828
596030.0,-5.398438,-9.753906,16.6875,-4.539062,-4.089844,8.332031,3.751953,-1.431641,0.128906
596047.0,1.304688,-4.238281,9.414062,-0.164062,7.335938,0.492188,0.529297,-0.480469,-0.304688
596070.0,-1.261719,-4.390625,8.691406,-0.527344,1.039062,0.171875,-0.302734,-0.068359,-0.111328
596087.0,-2.179688,-6.613281,8.453125,-1.0625,0.769531,0.050781,-0.632812,-0.177734,-0.105469
596109.0,-0.148438,-6.421875,8.191406,0.53125,-0.828125,-0.21875,-0.453125,-0.185547,-0.134766
596120.0,0.464844,-6.191406,8.230469,1.128906,-0.574219,-0.15625,-0.394531,-0.128906,-0.027344
596149.0,0.921875,-3.664062,9.453125,1.585938,2.148438,1.210938,-1.005859,-0.009766,-0.033203
596166.0,1.152344,-3.472656,10.601562,2.101562,2.457031,1.910156,-3.289062,0.107422,0.058594
596189.0,-0.035156,-1.136719,12.558594,0.691406,5.699219,5.15625,-5.259766,0.207031,0.087891
596206.0,-2.792969,-3.164062,12.171875,-0.339844,6.902344,4.941406,-7.568359,1.416016,0.333984
596229.0,-0.839844,-53.117188,37.492188,0.457031,-44.414062,32.546875,-9.941406,2.761719,0.751953
596246.0,9.160156,-48.910156,18.226562,-0.253906,-52.5,32.929688,-3.087891,3.445312,0.488281
596261.0,31.644531,-27.414062,-11.195312,25.363281,1.097656,-37.582031,4.001953,8.876953,-2.886719
596298.0,-21.144531,-5.15625,-4.261719,-19.234375,4.164062,-7.910156,-1.085938,1.871094,-1.728516
596339.0,7.472656,-2.78125,4.703125,8.628906,6.617188,0.898438,0.595703,-2.792969,-0.189453
596356.0,4.984375,0.664062,-0.085938,7.3125,8.386719,-1.546875,1.195312,0.046875,0.076172
596376.0,-5.472656,4.609375,-1.3125,2.914062,12.75,-6.386719,0.224609,0.761719,0.367188
596396.0,-8.425781,2.503906,1.023438,-6.5625,12.597656,-4.234375,-0.203125,-0.019531,0.998047
596426.0,-1.910156,2.425781,-2.953125,-2.816406,10.210938,-4.730469,-0.15625,0.146484,2.345703
596449.0,4.027344,-0.484375,-4.53125,6.300781,8.609375,-8.5,-0.5625,0.46875,2.400391
596466.0,3.757812,-4.582031,-2.0,6.75,6.753906,-7.214844,-0.865234,1.427734,1.902344
596488.0,0.769531,-4.46875,-2.191406,3.863281,4.5,-5.753906,-0.457031,1.011719,1.470703
596528.0,1.460938,-3.507812,-2.191406,4.726562,5.347656,-5.746094,-0.111328,-0.478516,0.417969
596545.0,3.296875,0.625,-5.101562,5.730469,7.609375,-6.996094,0.130859,0.519531,0.177734
596600.0,16.207031,-68.976562,54.308594,-10.050781,44.457031,-37.121094,12.451172,-4.607422,-2.513672
596615.0,19.886719,2.042969,-1.3125,-18.820312,8.75,52.707031,7.666016,-2.302734,-1.90625
596639.0,1.496094,0.167969,11.753906,2.863281,6.238281,3.984375,5.052734,-0.552734,-0.302734
596655.0,-2.332031,0.855469,11.484375,4.019531,3.570312,1.796875,1.574219,-0.953125,-0.431641
596679.0,1.613281,-5.234375,7.996094,2.644531,0.140625,-0.269531,-0.123047,-0.697266,-0.255859
596695.0,-1.296875,-6.996094,8.03125,0.828125,-1.605469,0.621094,-0.060547,-0.353516,-0.130859
596718.0,-0.300781,-6.613281,7.765625,0.597656,-1.238281,-0.484375,0.224609,-0.279297,-0.09375
596735.0,0.695312,-6.078125,8.269531,1.386719,-0.886719,-0.308594,0.277344,-0.052734,0.0625
596758.0,-0.761719,-5.003906,8.726562,0.160156,0.277344,0.453125,-0.115234,0.148438,0.154297
596775.0,-0.914062,-4.316406,9.035156,-0.125,0.675781,0.695312,-0.820312,0.132812,0.033203
596790.0,-0.265625,-4.351562,9.183594,1.066406,1.289062,1.25,-1.335938,0.216797,0.005859
596804.0,0.464844,-3.203125,10.527344,1.402344,2.226562,1.734375,-2.927734,0.433594,0.087891
596829.0,0.921875,-1.367188,12.402344,2.078125,4.953125,4.972656,-5.076172,0.570312,0.074219
596845.0,0.425781,-3.050781,14.511719,2.371094,5.253906,6.246094,-7.658203,2.181641,0.429688
596868.0,2.570312,-50.015625,37.339844,4.664062,-41.828125,32.363281,-9.785156,6.84375,3.203125
596884.0,6.019531,-49.671875,19.066406,2.195312,-42.320312,26.773438,-3.835938,7.501953,3.537109
596908.0,-8.347656,-22.8125,-4.222656,-4.550781,-14.324219,-7.535156,3.496094,6.529297,-1.943359
596925.0,-15.089844,-1.289062,-22.035156,4.109375,17.195312,-49.964844,-0.787109,0.818359,-1.757812
596945.0,-8.921875,-1.710938,-2.15625,-11.546875,5.40625,-10.867188,-1.630859,-2.589844,-0.683594
596964.0,-2.640625,1.316406,7.808594,-5.414062,7.03125,-5.28125,-1.513672,-1.984375,0.691406
596984.0,1.726562,0.855469,16.304688,2.375,9.875,12.429688,-0.5625,-1.974609,1.234375
597004.0,6.785156,-0.140625,13.164062,8.292969,9.292969,12.519531,0.912109,-1.255859,0.476562
597024.0,5.367188,-1.710938,5.890625,10.167969,7.921875,5.183594,2.013672,-0.117188,-0.730469
597045.0,3.722656,-0.945312,-0.777344,8.820312,6.992188,2.445312,2.392578,1.470703,-1.201172
597064.0,-2.601562,-0.5625,-6.789062,2.613281,7.917969,-9.058594,2.060547,2.435547,-0.859375
597096.0,-5.628906,-0.753906,-8.320312,-2.207031,7.597656,-12.5625,0.751953,0.9375,0.035156
597128.0,-1.105469,-0.332031,-9.429688,2.332031,7.941406,-13.777344,-0.0625,-1.349609,0.623047
597144.0,3.070312,-1.480469,-9.355469,4.71875,8.019531,-14.605469,-1.556641,-3.009766,0.259766
597167.0,5.980469,-4.929688,-5.5625,9.027344,3.492188,-9.8125,-1.591797,-2.765625,-0.009766
597185.0,7.546875,-3.742188,-6.941406,10.144531,4.277344,-10.417969,-0.966797,-0.394531,-0.689453
597208.0,4.449219,-2.015625,-7.597656,7.183594,6.625,-11.476562,-1.425781,1.347656,-0.976562
597234.0,15.136719,-78.246094,34.351562,-43.164062,-0.722656,-14.601562,13.794922,-5.529297,-0.962891
597255.0,-15.664062,5.222656,70.359375,-23.898438,46.671875,-40.300781,8.154297,-5.59375,-0.90625
597279.0,-8.808594,0.703125,8.914062,10.003906,1.316406,-1.074219,6.025391,-1.548828,-0.142578
597294.0,5.636719,10.546875,12.703125,-3.0625,-17.875,6.625,4.304688,-0.283203,-0.125
597318.0,1.996094,-2.015625,10.867188,1.996094,-2.015625,1.070312,-0.244141,-0.402344,-0.263672
597334.0,-1.644531,-12.441406,4.894531,-0.378906,-7.6875,-2.070312,-1.828125,-0.283203,0.041016
597357.0,-0.339844,-5.042969,7.804688,0.667969,5.019531,1.492188,0.355469,-0.125,-0.181641
597373.0,2.53125,-4.851562,8.835938,2.886719,5.050781,2.566406,-0.134766,0.0,0.058594
597397.0,-0.800781,-5.65625,8.378906,0.199219,4.359375,2.042969,-0.111328,0.099609,0.128906
597414.0,-0.417969,-5.003906,8.652344,0.324219,4.789062,2.089844,-0.228516,0.167969,0.091797
597437.0,-0.417969,-5.539062,8.414062,0.644531,4.53125,2.191406,-0.525391,0.185547,0.085938
597454.0,-0.761719,-6.191406,7.992188,0.429688,4.238281,2.085938,-0.378906,0.207031,0.115234
597468.0,-0.800781,-6.460938,7.804688,0.371094,3.808594,1.535156,-0.148438,0.255859,0.148438
597484.0,-0.722656,-6.691406,7.730469,0.394531,3.464844,1.542969,0.205078,0.277344,0.220703
597506.0,-0.800781,-5.734375,8.113281,0.464844,4.304688,1.933594,0.320312,0.279297,0.246094
597524.0,-1.070312,-5.386719,8.035156,0.503906,4.382812,2.054688,0.328125,0.230469,0.244141
597546.0,-1.296875,-5.734375,7.652344,0.117188,4.171875,1.332031,0.333984,0.197266,0.248047
597563.0,-0.761719,-5.847656,7.992188,0.339844,4.25,1.332031,0.521484,0.191406,0.195312
597588.0,-1.105469,-5.273438,8.074219,0.425781,4.445312,1.542969,0.644531,0.158203,0.181641
597604.0,-1.144531,-5.121094,8.148438,0.140625,4.734375,1.441406,0.611328,0.095703,0.119141
597618.0,-0.992188,-5.121094,8.191406,0.171875,4.824219,1.402344,0.646484,0.083984,0.097656
597633.0,-1.183594,-4.238281,8.109375,0.25,5.03125,1.40625,0.609375,-0.033203,0.021484
597657.0,-0.492188,-4.582031,8.53125,1.09375,4.769531,1.582031,0.521484,-0.064453,0.0
597673.0,-0.839844,-4.582031,8.6875,0.976562,4.730469,1.726562,0.304688,0.070312,0.066406
597697.0,-1.757812,-3.742188,8.265625,-0.148438,5.476562,1.179688,0.154297,0.105469,0.060547
597713.0,-1.414062,-4.851562,8.574219,-0.0625,4.6875,1.355469,0.068359,0.039062,0.015625
597737.0,-1.222656,-4.351562,8.652344,0.394531,4.789062,1.523438,0.017578,-0.009766,-0.019531
597753.0,-0.992188,-4.007812,8.574219,0.695312,4.847656,1.523438,-0.130859,0.009766,-0.035156
597776.0,-0.800781,-5.042969,8.730469,0.792969,4.082031,1.625,-0.240234,0.025391,-0.029297
597793.0,-1.070312,-4.851562,8.496094,0.792969,4.113281,1.53125,-0.220703,0.056641,-0.003906
597816.0,-1.105469,-4.964844,8.308594,0.488281,4.160156,1.273438,-0.166016,0.029297,-0.007812
597833.0,-1.183594,-5.042969,8.335938,0.257812,4.3125,1.273438,-0.115234,-0.03125,-0.035156
597851.0,-0.953125,-5.003906,8.230469,0.316406,4.371094,1.410156,-0.083984,-0.027344,-0.035156
597873.0,-1.070312,-4.851562,8.378906,0.570312,3.929688,1.480469,-0.058594,-0.052734,-0.050781
597888.0,-1.070312,-4.929688,8.53125,0.660156,3.875,1.5625,-0.054688,-0.0625,-0.050781
597902.0,-0.992188,-5.121094,8.53125,0.492188,3.859375,1.480469,0.001953,-0.048828,-0.037109
597926.0,-1.03125,-5.15625,8.535156,0.46875,3.851562,1.503906,0.007812,-0.042969,-0.025391
597956.0,-0.992188,-4.738281,8.414062,0.492188,4.214844,1.347656,0.0625,-0.029297,-0.007812
597973.0,-0.878906,-5.003906,8.535156,0.523438,4.230469,1.410156,0.003906,-0.027344,-0.007812
597997.0,-0.992188,-4.929688,8.496094,0.429688,3.984375,1.394531,0.0,-0.019531,-0.009766
598013.0,-0.992188,-4.964844,8.453125,0.46875,3.976562,1.347656,0.009766,-0.042969,-0.019531
598036.0,-0.914062,-5.042969,8.492188,0.523438,3.769531,1.363281,0.03125,-0.052734,-0.023438
598053.0,-1.03125,-4.851562,8.414062,0.429688,3.753906,1.347656,0.087891,-0.078125,-0.033203
598075.0,-0.914062,-4.964844,8.453125,0.476562,3.761719,1.269531,0.076172,-0.095703,-0.042969
598092.0,-0.878906,-4.890625,8.492188,0.460938,3.738281,1.300781,0.083984,-0.082031,-0.035156
598116.0,-0.914062,-4.890625,8.535156,0.4375,3.742188,1.292969,0.080078,-0.058594,-0.021484
598132.0,-0.878906,-4.890625,8.53125,0.496094,3.726562,1.246094,0.066406,-0.044922,-0.007812
598155.0,-0.839844,-4.890625,8.53125,0.480469,3.65625,1.246094,0.064453,-0.033203,-0.005859
598186.0,-1.03125,-4.46875,8.453125,0.273438,4.023438,1.136719,0.058594,-0.021484,0.0
598203.0,-0.761719,-4.890625,8.53125,0.496094,3.617188,1.207031,-0.003906,-0.029297,-0.011719
598225.0,-0.914062,-4.8125,8.53125,0.367188,3.601562,1.191406,-0.001953,-0.023438,-0.009766
598242.0,-0.839844,-4.851562,8.496094,0.394531,3.546875,1.175781,0.005859,-0.03125,-0.013672
598265.0,-0.839844,-4.851562,8.535156,0.417969,3.5,1.160156,0.003906,-0.023438,-0.009766
598305.0,-0.878906,-4.890625,8.53125,0.371094,3.382812,1.136719,0.009766,-0.005859,0.001953
598322.0,-0.878906,-4.8125,8.496094,0.363281,3.398438,1.128906,0.017578,-0.005859,0.0
598345.0,-0.800781,-4.699219,8.496094,0.433594,3.503906,1.066406,0.009766,-0.015625,-0.007812
598375.0,-0.800781,-4.851562,8.574219,0.417969,3.296875,1.125,-0.001953,-0.015625,-0.007812
598393.0,-0.878906,-4.851562,8.570312,0.339844,3.320312,1.125,-0.003906,-0.005859,-0.003906
598415.0,-0.878906,-4.8125,8.496094,0.332031,3.273438,1.027344,0.0,-0.003906,-0.003906
598432.0,-0.839844,-4.8125,8.535156,0.324219,3.25,1.066406,-0.001953,-0.013672,-0.009766
598455.0,-0.878906,-4.773438,8.53125,0.316406,3.234375,1.042969,-0.011719,-0.007812,-0.009766
598472.0,-0.800781,-4.890625,8.535156,0.355469,3.1875,1.042969,-0.011719,-0.007812,-0.009766
598495.0,-0.839844,-4.8125,8.496094,0.347656,3.140625,0.988281,-0.007812,-0.009766,-0.011719
598512.0,-0.800781,-4.773438,8.496094,0.332031,3.117188,0.980469,-0.011719,-0.005859,-0.011719
598532.0,-0.878906,-4.851562,8.535156,-0.027344,0.007812,0.003906,-0.019531,-0.007812,-0.017578
598552.0,-0.839844,-4.851562,8.535156,-0.027344,-0.03125,0.011719,-0.003906,-0.009766,-0.017578
598572.0,-0.761719,-4.773438,8.492188,0.042969,0.054688,0.011719,-0.017578,-0.017578,-0.017578
598592.0,-0.839844,-4.8125,8.496094,0.082031,0.054688,-0.027344,-0.027344,-0.007812,-0.015625
598612.0,-0.878906,-4.773438,8.492188,-0.003906,0.136719,-0.027344,-0.050781,-0.007812,-0.021484
598645.0,-0.839844,-4.890625,8.53125,-0.011719,-0.039062,0.019531,-0.044922,-0.001953,-0.017578
598662.0,-0.839844,-4.851562,8.496094,-0.011719,0.0,-0.019531,-0.054688,0.0,-0.019531
598676.0,-0.878906,-4.890625,8.492188,0.019531,-0.023438,0.027344,-0.050781,-0.005859,-0.021484
598692.0,-0.839844,-4.964844,8.535156,-0.019531,-0.097656,-0.011719,-0.035156,-0.005859,-0.023438
598716.0,-0.800781,-4.890625,8.496094,-0.019531,0.070312,-0.042969,-0.027344,-0.005859,-0.021484
598731.0,-0.800781,-4.929688,8.457031,-0.058594,0.03125,0.003906,-0.042969,-0.015625,-0.023438
598755.0,-0.800781,-4.929688,8.496094,0.003906,-0.023438,0.003906,-0.035156,-0.011719,-0.019531
598771.0,-0.800781,-4.964844,8.53125,-0.035156,-0.023438,0.011719,-0.023438,-0.015625,-0.021484
598795.0,-0.839844,-4.773438,8.453125,-0.042969,0.140625,-0.027344,-0.015625,-0.015625,-0.023438
598812.0,-0.800781,-4.929688,8.535156,-0.003906,0.0625,-0.027344,-0.041016,-0.017578,-0.025391
598833.0,-0.800781,-4.964844,8.53125,-0.011719,-0.042969,0.058594,-0.041016,-0.009766,-0.021484
598874.0,-0.800781,-4.964844,8.492188,-0.019531,-0.027344,0.027344,-0.068359,-0.007812,-0.023438
598891.0,-0.761719,-5.042969,8.496094,-0.019531,-0.058594,0.027344,-0.058594,-0.001953,-0.019531
598906.0,-0.761719,-5.042969,8.496094,-0.019531,-0.089844,0.035156,-0.050781,0.001953,-0.015625
598921.0,-0.800781,-4.964844,8.453125,0.019531,-0.042969,-0.011719,-0.039062,0.0,-0.011719
598944.0,-0.761719,-4.929688,8.453125,0.019531,0.054688,-0.003906,-0.039062,0.0,-0.011719
598984.0,-0.761719,-5.082031,8.457031,0.011719,-0.082031,0.011719,-0.066406,-0.009766,-0.019531
599016.0,-0.761719,-5.042969,8.457031,0.011719,-0.027344,0.019531,-0.058594,0.007812,-0.007812
599032.0,-0.800781,-5.082031,8.453125,-0.027344,-0.019531,-0.019531,-0.056641,0.007812,-0.007812
599055.0,-0.761719,-5.042969,8.417969,0.011719,-0.003906,-0.003906,-0.048828,0.007812,-0.007812
599071.0,-0.761719,-5.082031,8.378906,-0.027344,-0.042969,-0.003906,-0.03125,0.0,-0.009766
599095.0,-0.800781,-5.003906,8.414062,-0.027344,0.042969,-0.003906,-0.027344,0.0,-0.007812
599110.0,-0.761719,-5.042969,8.417969,0.011719,0.042969,-0.003906,-0.035156,-0.003906,-0.011719
599135.0,-0.761719,-5.042969,8.417969,0.003906,0.019531,0.003906,-0.033203,0.0,-0.007812
599151.0,-0.761719,-5.042969,8.417969,-0.027344,0.019531,0.003906,-0.039062,-0.003906,-0.009766
599174.0,-0.761719,-5.121094,8.457031,0.003906,-0.050781,0.050781,-0.041016,-0.005859,-0.011719
599191.0,-0.761719,-5.082031,8.417969,0.003906,-0.042969,0.011719,-0.041016,0.003906,-0.007812
599212.0,-0.761719,-5.121094,8.417969,0.003906,-0.035156,0.019531,-0.039062,0.001953,-0.007812
599244.0,-0.761719,-5.082031,8.378906,0.003906,0.011719,-0.019531,-0.027344,0.0,-0.007812
599261.0,-0.761719,-5.082031,8.417969,0.003906,0.011719,0.027344,-0.029297,-0.001953,-0.005859
599283.0,-0.761719,-5.121094,8.378906,0.003906,-0.019531,-0.019531,-0.03125,0.0,-0.003906
599324.0,-0.761719,-5.082031,8.417969,0.003906,0.027344,0.027344,-0.017578,0.001953,-0.003906
599341.0,-0.761719,-5.121094,8.378906,0.003906,-0.003906,-0.011719,-0.015625,0.0,-0.005859
599355.0,-0.761719,-5.121094,8.417969,0.003906,-0.039062,-0.011719,-0.017578,0.0,0.0
599371.0,-0.800781,-5.121094,8.375,0.003906,-0.003906,-0.011719,-0.015625,0.001953,0.001953
599395.0,-0.761719,-5.15625,8.375,0.003906,-0.003906,-0.003906,-0.005859,0.0,0.0
599411.0,-0.761719,-5.121094,8.378906,0.003906,-0.039062,-0.003906,0.001953,-0.003906,0.0
599435.0,-0.761719,-5.082031,8.378906,0.003906,0.042969,-0.003906,0.0,-0.007812,-0.005859
599450.0,-0.761719,-5.082031,8.378906,0.003906,0.003906,-0.003906,-0.003906,-0.005859,-0.007812
599474.0,-0.800781,-5.15625,8.378906,-0.042969,-0.03125,-0.003906,-0.005859,-0.001953,0.0
599490.0,-0.761719,-5.121094,8.339844,-0.003906,0.003906,-0.003906,-0.001953,-0.003906,0.0
599514.0,-0.761719,-5.15625,8.335938,0.003906,-0.039062,-0.042969,0.007812,-0.005859,0.0
599530.0,-0.761719,-5.15625,8.375,0.003906,-0.003906,-0.003906,0.015625,-0.007812,0.001953
599545.0,-0.761719,-5.121094,8.378906,0.003906,-0.003906,-0.003906,0.019531,-0.007812,0.003906
599561.0,-0.761719,-5.15625,8.414062,0.003906,-0.039062,0.035156,0.027344,-0.007812,0.007812
599583.0,-0.800781,-5.082031,8.414062,-0.035156,0.027344,0.027344,0.025391,-0.009766,0.001953
599600.0,-0.761719,-5.082031,8.378906,-0.035156,-0.011719,-0.011719,0.027344,-0.003906,0.005859
599622.0,-0.761719,-5.121094,8.378906,0.003906,-0.019531,-0.019531,0.021484,0.001953,0.003906
599634.0,-0.761719,-5.121094,8.417969,0.003906,-0.019531,0.019531,0.025391,0.001953,0.009766
599650.0,-0.761719,-5.082031,8.417969,-0.035156,0.011719,-0.019531,0.023438,0.001953,0.011719
599670.0,-0.761719,-5.082031,8.378906,0.003906,0.011719,-0.019531,0.021484,0.001953,0.011719
599695.0,-0.800781,-5.082031,8.375,-0.027344,0.003906,-0.027344,0.025391,0.001953,0.011719
599711.0,-0.761719,-5.082031,8.417969,0.011719,0.003906,-0.027344,0.03125,0.0,0.007812
599743.0,-0.800781,-5.042969,8.414062,-0.027344,0.035156,0.003906,0.023438,0.001953,0.003906
599760.0,-0.761719,-5.082031,8.417969,0.011719,-0.011719,0.011719,0.021484,0.003906,0.011719
599780.0,-0.761719,-5.082031,8.417969,0.011719,-0.019531,0.011719,0.017578,0.003906,0.011719
599811.0,-0.800781,-5.082031,8.414062,-0.019531,-0.027344,0.011719,0.013672,0.003906,0.007812
599823.0,-0.761719,-5.042969,8.417969,0.019531,0.011719,0.011719,0.019531,0.005859,0.007812
599862.0,-0.800781,-5.042969,8.375,-0.019531,0.003906,-0.035156,0.021484,0.0,0.009766
599892.0,-0.761719,-5.042969,8.417969,0.019531,-0.003906,0.003906,0.019531,-0.001953,0.005859
599932.0,-0.761719,-5.042969,8.417969,0.027344,-0.011719,-0.003906,0.009766,0.003906,0.007812
599950.0,-0.761719,-5.042969,8.417969,0.027344,-0.011719,0.035156,0.007812,0.005859,0.005859
599964.0,-0.761719,-5.003906,8.417969,0.027344,-0.011719,-0.042969,0.005859,0.005859,0.007812
599979.0,-0.800781,-5.003906,8.375,-0.011719,0.019531,-0.003906,0.011719,0.007812,0.009766
600002.0,-0.800781,-5.003906,8.414062,-0.011719,0.019531,-0.003906,0.005859,0.009766,0.007812
600019.0,-0.800781,-4.964844,8.375,0.027344,-0.019531,-0.011719,0.003906,0.005859,0.003906
600042.0,-0.800781,-5.042969,8.414062,-0.011719,-0.019531,-0.011719,-0.001953,0.005859,0.003906
600059.0,-0.800781,-5.042969,8.414062,-0.011719,0.019531,0.027344,-0.007812,0.003906,0.001953
600082.0,-0.800781,-4.964844,8.375,-0.003906,0.066406,-0.042969,-0.005859,0.003906,0.001953
600113.0,-0.761719,-5.003906,8.417969,0.027344,0.027344,0.003906,-0.025391,0.005859,-0.001953
600128.0,-0.839844,-5.003906,8.378906,-0.003906,-0.011719,0.003906,-0.027344,0.003906,-0.009766
600153.0,-0.800781,-5.042969,8.414062,-0.003906,-0.011719,0.011719,-0.023438,0.001953,-0.009766
600168.0,-0.761719,-5.082031,8.417969,-0.003906,-0.011719,0.011719,-0.019531,0.001953,-0.003906
600192.0,-0.800781,-5.082031,8.414062,-0.003906,-0.042969,0.011719,-0.017578,0.001953,-0.005859
600209.0,-0.800781,-5.082031,8.414062,0.035156,-0.042969,0.011719,-0.007812,-0.001953,-0.003906
600232.0,-0.800781,-5.082031,8.453125,-0.003906,-0.035156,0.050781,-0.011719,-0.005859,-0.003906
600249.0,-0.761719,-5.082031,8.417969,0.027344,-0.066406,0.011719,-0.007812,-0.005859,-0.003906
600272.0,-0.800781,-5.082031,8.414062,-0.011719,-0.027344,0.011719,-0.001953,0.0,-0.001953
600289.0,-0.761719,-5.082031,8.417969,-0.011719,-0.027344,-0.027344,-0.001953,-0.001953,-0.001953
600309.0,-0.800781,-5.003906,8.414062,0.027344,0.011719,0.011719,-0.001953,0.0,-0.001953
600329.0,-0.800781,-5.082031,8.414062,-0.011719,0.050781,0.011719,-0.005859,0.001953,-0.005859
600343.0,-0.761719,-5.082031,8.417969,-0.019531,0.019531,0.011719,-0.003906,0.0,-0.003906
600358.0,-0.761719,-5.082031,8.378906,0.019531,-0.019531,0.011719,-0.003906,0.001953,0.001953
600382.0,-0.761719,-5.082031,8.378906,0.019531,-0.019531,-0.027344,-0.005859,0.001953,-0.003906
600398.0,-0.761719,-5.082031,8.417969,-0.019531,-0.019531,-0.027344,-0.001953,0.0,0.0
600421.0,-0.761719,-5.082031,8.378906,0.019531,-0.019531,-0.027344,0.005859,0.001953,0.001953
600461.0,-0.761719,-5.042969,8.417969,0.019531,0.019531,0.011719,0.003906,-0.003906,0.0
600493.0,-0.800781,-5.082031,8.414062,-0.019531,-0.019531,0.011719,0.009766,0.0,0.003906
600508.0,-0.800781,-5.042969,8.414062,-0.019531,-0.019531,0.011719,0.007812,0.0,0.001953
600532.0,-0.761719,-5.042969,8.417969,0.019531,0.011719,0.011719,0.005859,-0.003906,0.0
600548.0,-0.761719,-5.082031,8.417969,-0.019531,0.011719,0.011719,0.005859,-0.003906,0.003906
600572.0,-0.800781,-5.082031,8.414062,-0.019531,-0.027344,0.003906,0.009766,-0.001953,0.003906
600588.0,-0.761719,-5.082031,8.417969,-0.019531,-0.027344,-0.035156,0.009766,-0.003906,0.003906
600611.0,-0.761719,-5.082031,8.417969,0.019531,-0.027344,0.003906,0.015625,-0.003906,0.005859
600628.0,-0.761719,-5.082031,8.417969,-0.019531,0.003906,0.042969,0.017578,-0.001953,0.007812
600647.0,-0.761719,-5.082031,8.417969,0.011719,-0.027344,0.003906,0.023438,0.001953,0.007812
600668.0,-0.761719,-5.042969,8.417969,0.019531,0.011719,-0.011719,0.027344,0.001953,0.005859
600688.0,-0.761719,-5.042969,8.417969,-0.019531,0.003906,-0.011719,0.021484,0.0,0.007812
600708.0,-0.800781,-5.003906,8.414062,0.019531,0.003906,-0.011719,0.017578,0.0,0.005859
600728.0,-0.761719,-5.042969,8.457031,-0.019531,-0.003906,-0.042969,0.019531,0.001953,0.009766
600760.0,-0.800781,-5.003906,8.453125,-0.019531,0.027344,0.027344,0.011719,0.001953,0.007812
600777.0,-0.761719,-5.003906,8.417969,-0.019531,0.027344,0.027344,0.015625,0.0,0.005859
600801.0,-0.800781,-5.003906,8.414062,-0.011719,0.019531,-0.011719,0.015625,0.0,0.005859
600818.0,-0.761719,-5.003906,8.417969,-0.011719,0.019531,0.027344,0.009766,0.0,0.001953
600837.0,-0.800781,-5.003906,8.414062,0.027344,0.019531,0.027344,0.005859,0.0,0.001953
600857.0,-0.800781,-5.003906,8.453125,-0.011719,0.011719,0.027344,0.005859,0.0,0.001953
600878.0,-0.800781,-5.003906,8.453125,0.027344,-0.027344,0.027344,0.007812,0.0,0.003906
600911.0,-0.800781,-5.042969,8.453125,-0.011719,-0.027344,0.019531,0.003906,0.0,0.003906
600927.0,-0.800781,-5.042969,8.414062,-0.011719,0.011719,-0.019531,0.007812,0.0,0.003906
600951.0,-0.800781,-5.003906,8.414062,-0.011719,0.003906,-0.019531,0.007812,0.001953,0.0
600968.0,-0.761719,-5.003906,8.417969,0.035156,0.003906,0.019531,0.013672,0.0,0.005859
600990.0,-0.800781,-5.003906,8.453125,-0.011719,0.003906,0.019531,0.011719,0.001953,0.003906
601007.0,-0.800781,-4.964844,8.414062,-0.011719,0.003906,-0.019531,0.015625,-0.001953,0.003906
601022.0,-0.839844,-4.964844,8.417969,-0.011719,0.042969,0.019531,0.007812,-0.001953,0.001953
601038.0,-0.800781,-5.003906,8.414062,-0.011719,0.003906,0.019531,0.007812,-0.001953,-0.003906
601061.0,-0.800781,-5.003906,8.453125,-0.011719,-0.003906,0.011719,0.007812,-0.001953,0.001953
601077.0,-0.800781,-5.003906,8.414062,-0.011719,-0.003906,0.011719,0.005859,0.0,0.0
601100.0,-0.800781,-4.964844,8.453125,-0.011719,0.035156,0.011719,0.003906,0.0,0.0
601132.0,-0.800781,-5.003906,8.414062,-0.011719,-0.003906,-0.027344,0.003906,0.0,0.001953
601147.0,-0.800781,-5.003906,8.453125,-0.011719,-0.042969,0.011719,0.005859,0.0,0.001953
601172.0,-0.761719,-5.003906,8.457031,0.027344,-0.003906,0.011719,0.001953,-0.001953,0.0
601187.0,-0.800781,-5.003906,8.453125,0.027344,-0.003906,-0.027344,0.003906,0.001953,0.001953
601211.0,-0.761719,-5.003906,8.457031,0.027344,-0.003906,0.011719,-0.001953,0.001953,0.0
601227.0,-0.800781,-4.964844,8.453125,0.027344,-0.003906,0.011719,0.0,0.003906,0.001953
601250.0,-0.800781,-5.003906,8.453125,-0.011719,-0.003906,0.011719,0.0,0.005859,0.0
601266.0,-0.800781,-5.003906,8.453125,-0.011719,-0.003906,0.011719,0.0,0.001953,-0.001953
601290.0,-0.761719,-5.003906,8.457031,0.027344,-0.003906,0.011719,-0.003906,0.0,0.001953
601307.0,-0.761719,-5.003906,8.417969,-0.011719,0.035156,-0.027344,-0.001953,0.003906,0.001953
601329.0,-0.800781,-5.003906,8.453125,-0.011719,-0.003906,0.011719,-0.003906,0.0,0.001953
601360.0,-0.800781,-5.003906,8.453125,-0.003906,-0.003906,0.011719,-0.005859,0.0,0.0
601377.0,-0.761719,-5.003906,8.417969,0.035156,-0.003906,0.011719,-0.001953,0.001953,0.001953
601399.0,-0.800781,-5.003906,8.453125,-0.003906,-0.003906,0.011719,-0.003906,0.0,0.0
601439.0,-0.761719,-5.003906,8.417969,0.027344,0.003906,-0.027344,0.0,-0.003906,-0.001953
601471.0,-0.800781,-4.964844,8.453125,-0.011719,0.042969,0.011719,0.001953,0.001953,0.003906
601496.0,-0.800781,-5.003906,8.453125,-0.011719,0.003906,-0.027344,-0.001953,0.0,0.001953
601519.0,-0.800781,-5.003906,8.453125,-0.011719,0.003906,0.011719,-0.001953,0.001953,0.001953
601551.0,-0.761719,-4.964844,8.457031,0.027344,0.042969,0.011719,0.0,0.0,0.0
601566.0,-0.800781,-5.003906,8.453125,-0.011719,0.003906,0.011719,0.001953,0.001953,0.001953
601590.0,-0.800781,-4.964844,8.414062,-0.011719,0.035156,-0.027344,0.005859,0.0,0.0
601606.0,-0.800781,-5.003906,8.453125,-0.011719,0.035156,0.011719,0.0,0.001953,0.0
601629.0,-0.800781,-5.003906,8.453125,-0.011719,-0.003906,0.011719,-0.003906,-0.001953,0.0
601646.0,-0.800781,-5.003906,8.453125,-0.011719,-0.003906,-0.027344,-0.001953,0.0,0.0
601669.0,-0.800781,-5.003906,8.453125,-0.011719,-0.003906,0.011719,-0.001953,0.0,0.0
601700.0,-0.800781,-4.964844,8.453125,-0.011719,0.035156,0.011719,-0.001953,0.0,0.001953
601716.0,-0.800781,-5.003906,8.453125,-0.011719,-0.003906,-0.027344,0.0,0.0,0.0
601739.0,-0.800781,-5.003906,8.414062,-0.011719,-0.003906,-0.027344,-0.001953,0.0,-0.003906
601749.0,-0.800781,-4.964844,8.453125,-0.011719,0.035156,0.011719,0.0,0.0,0.0
601766.0,-0.800781,-5.003906,8.414062,-0.011719,0.035156,0.011719,0.0,-0.003906,0.0
601787.0,-0.800781,-5.003906,8.453125,0.027344,-0.003906,0.011719,-0.001953,-0.001953,-0.003906
601819.0,-0.800781,-4.964844,8.453125,-0.011719,0.035156,0.011719,-0.001953,0.0,-0.003906
601836.0,-0.761719,-4.964844,8.417969,-0.011719,0.035156,0.011719,-0.005859,0.0,-0.003906
601868.0,-0.800781,-5.003906,8.453125,-0.011719,-0.003906,0.011719,-0.005859,0.0,-0.003906
601890.0,-0.800781,-4.964844,8.414062,-0.011719,0.035156,0.011719,-0.007812,0.0,-0.001953
601905.0,-0.761719,-5.003906,8.457031,-0.011719,0.003906,-0.027344,-0.007812,0.001953,-0.001953
601929.0,-0.800781,-5.003906,8.453125,-0.011719,0.003906,0.019531,-0.007812,-0.001953,0.0
601945.0,-0.761719,-5.003906,8.457031,-0.011719,0.003906,0.019531,-0.007812,0.0,-0.003906
601969.0,-0.800781,-5.042969,8.414062,-0.011719,-0.035156,-0.019531,-0.005859,0.0,-0.003906
601985.0,-0.761719,-5.042969,8.457031,-0.011719,-0.035156,0.019531,-0.005859,0.0,-0.005859
602007.0,-0.800781,-5.042969,8.453125,-0.011719,-0.035156,0.019531,-0.005859,-0.001953,-0.003906
602048.0,-0.800781,-5.003906,8.414062,-0.011719,0.003906,-0.019531,-0.005859,0.001953,-0.005859
602066.0,-0.800781,-5.003906,8.414062,0.019531,0.011719,0.019531,-0.007812,0.001953,-0.001953
602080.0,-0.800781,-5.003906,8.414062,0.019531,0.011719,-0.019531,-0.007812,0.0,-0.003906
602105.0,-0.761719,-5.003906,8.417969,-0.019531,0.011719,-0.019531,-0.007812,0.0,-0.005859
602125.0,-0.761719,-5.003906,8.417969,-0.019531,-0.027344,-0.011719,-0.005859,0.0,0.0
602145.0,-0.761719,-5.042969,8.417969,0.019531,0.011719,-0.011719,-0.007812,0.001953,-0.005859
602165.0,-0.800781,-5.003906,8.414062,-0.019531,-0.019531,-0.011719,-0.007812,0.001953,-0.003906
602190.0,-0.800781,-5.003906,8.453125,-0.019531,0.019531,0.027344,-0.009766,-0.003906,-0.003906
602206.0,-0.800781,-5.003906,8.414062,0.019531,0.019531,0.027344,-0.005859,-0.001953,-0.005859
602229.0,-0.761719,-5.003906,8.417969,0.019531,0.019531,-0.011719,-0.007812,-0.003906,-0.003906
602245.0,-0.761719,-5.042969,8.457031,-0.019531,0.019531,-0.011719,-0.011719,-0.003906,-0.003906
602269.0,-0.761719,-5.003906,8.417969,0.019531,0.027344,-0.011719,-0.007812,-0.003906,-0.005859
602285.0,-0.761719,-5.042969,8.417969,-0.027344,-0.011719,-0.011719,-0.011719,-0.003906,-0.003906
602306.0,-0.761719,-5.003906,8.457031,0.011719,0.027344,0.035156,-0.011719,-0.003906,-0.007812
602348.0,-0.761719,-5.042969,8.417969,0.011719,-0.011719,-0.003906,-0.009766,0.0,-0.005859
602365.0,-0.800781,-5.042969,8.414062,-0.027344,-0.003906,-0.003906,-0.007812,0.0,-0.003906
602386.0,-0.800781,-5.042969,8.414062,-0.027344,-0.003906,-0.003906,-0.005859,0.0,-0.003906
602418.0,-0.800781,-5.042969,8.414062,-0.027344,-0.011719,-0.003906,-0.005859,0.0,0.0
602435.0,-0.761719,-5.042969,8.417969,-0.027344,-0.011719,-0.003906,-0.009766,0.001953,-0.003906
602457.0,-0.761719,-5.042969,8.417969,0.011719,-0.011719,-0.003906,-0.011719,0.001953,-0.003906
602497.0,-0.800781,-5.042969,8.414062,-0.027344,-0.003906,0.003906,-0.005859,-0.005859,-0.005859
602515.0,-0.761719,-5.042969,8.378906,0.011719,-0.042969,0.003906,-0.001953,0.0,0.001953
602537.0,-0.761719,-5.003906,8.417969,0.011719,0.035156,0.003906,0.001953,-0.001953,-0.003906
602577.0,-0.761719,-5.082031,8.417969,0.011719,-0.042969,-0.003906,-0.001953,-0.003906,0.0
602609.0,-0.761719,-5.042969,8.417969,0.011719,-0.003906,0.003906,0.001953,-0.001953,0.0
602624.0,-0.761719,-5.042969,8.417969,-0.027344,-0.003906,0.042969,0.005859,0.0,0.003906
602648.0,-0.761719,-5.042969,8.417969,0.011719,-0.003906,0.003906,0.007812,0.0,0.0
602664.0,-0.761719,-5.042969,8.457031,0.011719,-0.011719,-0.003906,0.011719,0.0,0.001953
602688.0,-0.761719,-5.042969,8.417969,0.011719,-0.011719,-0.003906,0.011719,-0.003906,0.001953
602705.0,-0.761719,-5.042969,8.457031,-0.027344,-0.011719,-0.003906,0.013672,-0.003906,0.003906
602719.0,-0.800781,-5.042969,8.414062,0.011719,-0.011719,-0.003906,0.009766,-0.005859,0.003906
602735.0,-0.761719,-5.003906,8.417969,0.011719,0.027344,0.035156,0.011719,-0.005859,0.003906
602757.0,-0.761719,-5.042969,8.417969,0.003906,-0.019531,-0.003906,0.011719,-0.003906,0.003906
602775.0,-0.800781,-5.003906,8.375,0.011719,-0.019531,0.027344,0.017578,-0.003906,0.003906
602797.0,-0.761719,-5.042969,8.417969,0.003906,-0.019531,-0.011719,0.015625,-0.003906,0.005859
602837.0,-0.761719,-5.003906,8.457031,0.011719,0.011719,0.027344,0.017578,0.0,0.005859
602876.0,-0.800781,-5.003906,8.453125,-0.027344,0.003906,0.019531,0.021484,0.001953,0.007812
602917.0,-0.761719,-4.964844,8.417969,0.011719,0.035156,-0.019531,0.019531,0.003906,0.005859
602934.0,-0.761719,-4.964844,8.417969,0.011719,0.035156,0.011719,0.011719,0.005859,0.003906
602955.0,-0.761719,-5.003906,8.457031,0.011719,0.035156,-0.027344,0.0,0.003906,0.005859
602987.0,-0.761719,-5.003906,8.417969,0.011719,-0.003906,-0.027344,0.003906,0.0,0.001953
603004.0,-0.800781,-4.964844,8.453125,-0.019531,0.035156,0.011719,0.0,0.001953,0.001953
603027.0,-0.761719,-5.042969,8.457031,0.019531,-0.050781,0.011719,-0.001953,0.0,0.003906
603044.0,-0.761719,-5.003906,8.457031,-0.019531,-0.050781,-0.027344,0.003906,0.001953,0.001953
603067.0,-0.761719,-5.003906,8.417969,0.019531,-0.011719,-0.027344,0.011719,0.001953,0.003906
603084.0,-0.761719,-5.042969,8.457031,0.019531,-0.011719,0.011719,0.015625,0.001953,0.003906
603107.0,-0.761719,-5.003906,8.457031,0.019531,-0.011719,0.011719,0.017578,0.001953,0.007812
603123.0,-0.800781,-4.964844,8.414062,0.019531,-0.019531,-0.027344,0.017578,0.0,0.003906
603138.0,-0.800781,-5.003906,8.453125,0.019531,0.019531,-0.035156,0.015625,0.0,0.005859
603153.0,-0.761719,-5.003906,8.457031,0.011719,0.019531,0.003906,0.011719,0.001953,0.003906
603177.0,-0.761719,-5.003906,8.457031,0.019531,-0.019531,0.003906,0.011719,0.001953,0.007812
603193.0,-0.800781,-5.003906,8.453125,-0.019531,0.019531,0.003906,0.009766,0.0,0.005859
603216.0,-0.800781,-4.964844,8.414062,-0.019531,0.019531,-0.035156,0.013672,0.0,0.005859
603233.0,-0.800781,-4.964844,8.453125,-0.011719,-0.019531,0.003906,0.011719,-0.001953,0.003906
603256.0,-0.800781,-4.964844,8.453125,-0.011719,0.019531,0.003906,0.015625,0.001953,0.005859
603273.0,-0.761719,-4.964844,8.457031,0.027344,0.019531,0.003906,0.009766,-0.003906,0.005859
603294.0,-0.800781,-4.964844,8.453125,-0.019531,0.011719,-0.003906,0.009766,0.0,0.005859
603327.0,-0.800781,-4.929688,8.457031,-0.019531,0.039062,-0.003906,0.007812,-0.001953,0.003906
603343.0,-0.800781,-4.964844,8.492188,-0.019531,0.039062,-0.003906,0.001953,0.001953,0.0
603366.0,-0.800781,-5.003906,8.492188,-0.019531,-0.035156,0.035156,0.005859,0.0,0.0
603383.0,-0.761719,-4.964844,8.496094,0.019531,0.003906,-0.003906,0.003906,0.0,0.0
603406.0,-0.800781,-4.964844,8.453125,-0.019531,0.003906,-0.003906,0.003906,0.0,0.001953
603423.0,-0.800781,-4.964844,8.453125,-0.019531,0.039062,-0.003906,0.0,0.0,0.001953
603445.0,-0.761719,-4.929688,8.492188,0.019531,0.039062,0.035156,0.0,0.001953,0.0
603476.0,-0.761719,-4.964844,8.417969,0.027344,-0.003906,-0.042969,-0.003906,0.001953,0.0
603492.0,-0.800781,-4.964844,8.414062,0.027344,-0.003906,-0.003906,-0.003906,0.003906,0.0
603515.0,-0.761719,-4.964844,8.457031,0.027344,-0.003906,-0.003906,-0.001953,0.003906,0.0
603526.0,-0.800781,-4.964844,8.453125,-0.011719,-0.003906,-0.003906,-0.003906,0.001953,-0.003906
603543.0,-0.800781,-4.964844,8.492188,-0.011719,0.003906,-0.003906,-0.003906,0.001953,0.001953
603557.0,-0.800781,-4.964844,8.453125,-0.011719,0.003906,-0.042969,-0.005859,0.001953,0.0
603573.0,-0.839844,-4.890625,8.414062,-0.011719,0.039062,-0.003906,-0.007812,0.003906,-0.003906
603587.0,-0.800781,-4.964844,8.453125,-0.011719,0.003906,-0.003906,-0.011719,0.001953,-0.003906
603603.0,-0.800781,-4.964844,8.492188,-0.011719,0.003906,-0.042969,-0.007812,0.0,0.0
603628.0,-0.800781,-5.003906,8.453125,-0.011719,-0.035156,0.003906,-0.013672,-0.001953,-0.005859
603666.0,-0.800781,-4.964844,8.453125,-0.011719,0.003906,0.003906,-0.011719,0.001953,0.0
603683.0,-0.800781,-4.964844,8.453125,-0.011719,0.011719,0.011719,-0.005859,0.001953,0.0
603706.0,-0.761719,-4.964844,8.457031,0.027344,0.011719,0.011719,-0.005859,0.001953,-0.001953
603722.0,-0.761719,-5.003906,8.457031,-0.011719,0.011719,0.011719,-0.005859,0.001953,0.001953
603746.0,-0.800781,-4.964844,8.453125,-0.011719,0.011719,0.011719,-0.005859,0.003906,0.003906
603762.0,-0.761719,-5.003906,8.457031,-0.011719,-0.027344,0.011719,-0.005859,0.003906,0.0
603782.0,-0.800781,-4.964844,8.453125,0.027344,-0.027344,0.011719,-0.001953,0.0,-0.003906
603803.0,-0.800781,-5.003906,8.453125,0.027344,-0.027344,0.011719,-0.003906,-0.001953,0.0
603832.0,-0.800781,-4.964844,8.453125,-0.011719,0.019531,0.042969,0.0,-0.001953,-0.003906
603859.0,-0.800781,-5.003906,8.453125,-0.019531,-0.019531,0.003906,0.0,0.0,0.0
603882.0,-0.800781,-4.964844,8.453125,-0.019531,0.019531,0.003906,0.0,-0.001953,0.0
603902.0,-0.800781,-4.964844,8.453125,-0.019531,0.054688,0.003906,-0.005859,0.0,-0.003906
603935.0,-0.761719,-4.964844,8.457031,0.027344,0.019531,0.003906,-0.001953,0.001953,0.0
603974.0,-0.800781,-4.964844,8.453125,-0.011719,0.019531,0.003906,-0.003906,0.0,0.0
604007.0,-0.761719,-5.003906,8.457031,0.027344,-0.019531,0.003906,-0.003906,0.0,-0.003906
604044.0,-0.761719,-5.042969,8.457031,0.027344,-0.058594,0.003906,0.0,-0.003906,-0.001953
604054.0,-0.761719,-5.003906,8.457031,0.027344,-0.019531,0.003906,0.003906,-0.001953,0.001953
604084.0,-0.761719,-5.003906,8.457031,0.019531,-0.011719,0.011719,0.003906,-0.003906,0.0
604123.0,-0.800781,-4.964844,8.453125,-0.019531,0.019531,0.003906,0.011719,-0.005859,0.003906
604165.0,-0.800781,-4.929688,8.378906,-0.019531,0.054688,-0.074219,0.009766,0.0,0.0
604182.0,-0.761719,-4.964844,8.457031,-0.019531,0.019531,0.003906,0.007812,0.0,-0.001953
604196.0,-0.800781,-4.964844,8.453125,-0.019531,0.011719,-0.003906,0.005859,0.001953,0.001953
604211.0,-0.800781,-4.964844,8.453125,0.019531,0.011719,-0.003906,0.005859,0.0,0.001953
604235.0,-0.761719,-4.964844,8.496094,0.019531,0.011719,0.035156,-0.001953,0.001953,-0.001953
604251.0,-0.761719,-4.964844,8.457031,-0.019531,0.011719,-0.003906,-0.007812,0.0,-0.003906
604275.0,-0.761719,-4.964844,8.457031,0.019531,0.019531,0.003906,-0.007812,0.0,-0.005859
604291.0,-0.761719,-5.003906,8.457031,-0.019531,0.019531,0.003906,-0.011719,0.001953,-0.001953
604314.0,-0.800781,-4.964844,8.453125,-0.019531,0.019531,0.003906,-0.007812,0.0,-0.003906
604331.0,-0.761719,-4.964844,8.457031,-0.019531,0.019531,0.003906,-0.005859,-0.003906,-0.003906
604352.0,-0.761719,-4.964844,8.457031,-0.019531,0.019531,0.003906,-0.005859,-0.003906,-0.003906
604383.0,-0.800781,-4.964844,8.453125,-0.027344,0.027344,0.003906,-0.007812,-0.003906,-0.005859
604393.0,-0.761719,-5.042969,8.457031,0.011719,-0.050781,0.003906,-0.003906,-0.005859,-0.001953
604424.0,-0.761719,-5.003906,8.457031,0.011719,-0.019531,0.003906,-0.005859,-0.005859,-0.003906
604441.0,-0.761719,-5.003906,8.457031,-0.027344,0.027344,0.003906,-0.003906,-0.005859,-0.003906
604464.0,-0.761719,-4.964844,8.457031,0.011719,0.027344,0.011719,-0.003906,-0.005859,-0.003906
604481.0,-0.761719,-4.964844,8.457031,-0.027344,0.027344,0.003906,-0.003906,0.001953,-0.005859
604504.0,-0.761719,-4.964844,8.457031,0.011719,0.027344,0.011719,-0.003906,0.0,-0.003906
604521.0,-0.761719,-5.003906,8.457031,0.011719,-0.011719,0.011719,-0.005859,-0.001953,0.0
604541.0,-0.761719,-5.003906,8.457031,0.003906,-0.011719,-0.027344,-0.007812,-0.003906,-0.001953
604561.0,-0.761719,-4.964844,8.457031,0.003906,-0.003906,0.011719,-0.007812,0.0,-0.003906
604574.0,-0.761719,-4.964844,8.457031,0.003906,-0.003906,0.011719,-0.005859,0.0,-0.003906
604591.0,-0.761719,-5.003906,8.457031,0.003906,-0.003906,0.011719,-0.005859,-0.003906,-0.003906
604613.0,-0.800781,-5.003906,8.453125,-0.035156,-0.003906,0.011719,-0.009766,-0.001953,-0.003906
604653.0,-0.761719,-5.003906,8.378906,0.003906,0.003906,-0.066406,-0.009766,0.001953,-0.005859
604693.0,-0.761719,-5.003906,8.417969,0.011719,-0.003906,-0.019531,-0.013672,-0.003906,-0.005859
604713.0,-0.800781,-5.003906,8.453125,-0.035156,-0.003906,0.019531,-0.015625,-0.005859,-0.005859
604725.0,-0.761719,-5.003906,8.417969,0.003906,0.003906,0.019531,-0.011719,-0.001953,-0.005859
604741.0,-0.761719,-5.003906,8.457031,0.003906,0.003906,-0.019531,-0.005859,-0.003906,-0.007812
604764.0,-0.761719,-5.003906,8.417969,0.003906,0.003906,-0.019531,-0.011719,-0.005859,-0.005859
604781.0,-0.761719,-5.003906,8.457031,0.003906,0.003906,0.019531,-0.007812,-0.003906,-0.007812
604803.0,-0.761719,-5.003906,8.457031,0.003906,0.011719,0.027344,-0.013672,-0.003906,-0.007812
604820.0,-0.761719,-5.003906,8.417969,0.003906,0.011719,-0.011719,-0.017578,-0.001953,-0.005859
604844.0,-0.761719,-5.042969,8.457031,0.003906,-0.019531,0.027344,-0.015625,0.0,-0.005859
604860.0,-0.761719,-5.042969,8.417969,0.003906,-0.019531,-0.011719,-0.015625,-0.003906,-0.005859
604880.0,-0.761719,-5.042969,8.457031,0.003906,-0.019531,0.027344,-0.007812,-0.005859,-0.003906
604900.0,-0.761719,-5.003906,8.417969,0.003906,-0.019531,0.027344,-0.011719,-0.007812,-0.005859
604915.0,-0.761719,-5.042969,8.457031,-0.003906,-0.011719,-0.003906,-0.007812,-0.003906,-0.007812
604930.0,-0.800781,-5.042969,8.414062,-0.003906,-0.011719,0.035156,-0.011719,-0.005859,-0.005859
604953.0,-0.761719,-5.042969,8.417969,-0.003906,-0.011719,-0.003906,-0.009766,-0.003906,-0.003906
604993.0,-0.761719,-5.003906,8.417969,-0.003906,0.035156,-0.011719,-0.007812,-0.003906,-0.009766
605010.0,-0.761719,-5.003906,8.457031,-0.003906,0.035156,-0.011719,-0.015625,0.0,-0.005859
605032.0,-0.761719,-5.042969,8.417969,-0.003906,-0.003906,-0.003906,-0.023438,0.001953,-0.009766
605064.0,-0.761719,-5.042969,8.417969,-0.003906,0.003906,-0.003906,-0.03125,0.003906,-0.005859
605080.0,-0.761719,-5.042969,8.417969,0.003906,0.003906,-0.003906,-0.035156,0.003906,-0.007812
605104.0,-0.761719,-5.003906,8.417969,-0.003906,0.050781,0.003906,-0.046875,0.009766,-0.007812
605119.0,-0.761719,-5.042969,8.457031,-0.003906,0.019531,-0.035156,-0.054688,0.009766,-0.009766
605144.0,-0.761719,-5.082031,8.457031,0.003906,-0.003906,0.050781,-0.054688,0.007812,-0.009766
605159.0,-0.761719,-5.082031,8.378906,0.003906,-0.003906,0.019531,-0.050781,0.009766,-0.003906
605183.0,-0.761719,-5.121094,8.417969,0.011719,-0.035156,0.027344,-0.046875,0.001953,-0.009766
605200.0,-0.761719,-5.121094,8.378906,0.003906,-0.035156,-0.050781,-0.041016,0.0,-0.005859
605222.0,-0.761719,-5.082031,8.339844,0.003906,0.011719,-0.042969,-0.029297,-0.003906,-0.007812
605240.0,-0.761719,-5.121094,8.339844,-0.035156,0.019531,-0.042969,-0.025391,-0.005859,-0.009766
605254.0,-0.761719,-5.082031,8.378906,0.003906,0.027344,-0.003906,-0.023438,-0.003906,-0.009766
605270.0,-0.761719,-5.121094,8.339844,0.003906,-0.011719,0.035156,-0.025391,-0.003906,-0.005859
605292.0,-0.761719,-5.121094,8.378906,0.003906,-0.003906,0.003906,-0.029297,-0.003906,-0.007812
605303.0,-0.761719,-5.082031,8.417969,-0.003906,0.035156,0.042969,-0.033203,0.0,-0.009766
605319.0,-0.761719,-5.042969,8.378906,-0.003906,0.035156,0.003906,-0.052734,0.001953,-0.011719
605339.0,-0.761719,-5.121094,8.378906,-0.003906,0.050781,0.050781,-0.076172,0.005859,-0.015625
605404.0,-0.761719,-5.121094,8.339844,-0.003906,0.058594,0.011719,-0.152344,0.017578,-0.019531
605440.0,-0.761719,-5.195312,8.269531,0.003906,0.046875,-0.03125,-0.205078,0.017578,-0.025391
605452.0,-0.761719,-5.195312,8.308594,0.011719,0.0625,0.015625,-0.240234,0.017578,-0.029297
605468.0,-0.761719,-5.273438,8.265625,0.003906,0.046875,-0.007812,-0.267578,0.011719,-0.041016
605489.0,-0.761719,-5.3125,8.226562,0.003906,0.015625,0.023438,-0.287109,0.013672,-0.044922
605509.0,-0.761719,-5.3125,8.1875,-0.003906,0.039062,0.0,-0.308594,0.007812,-0.048828
605528.0,-0.761719,-5.425781,8.191406,-0.003906,-0.003906,0.007812,-0.316406,0.003906,-0.048828
605551.0,-0.761719,-5.539062,8.109375,-0.011719,-0.039062,-0.011719,-0.326172,0.005859,-0.046875
605562.0,-0.761719,-5.539062,8.148438,-0.011719,-0.007812,0.039062,-0.328125,0.001953,-0.042969
605579.0,-0.761719,-5.65625,8.148438,-0.011719,-0.023438,0.019531,-0.320312,0.0,-0.03125
605593.0,-0.722656,-5.65625,8.03125,0.019531,-0.046875,-0.058594,-0.316406,-0.005859,-0.025391
605608.0,-0.761719,-5.617188,8.03125,0.019531,0.015625,-0.117188,-0.302734,0.0,-0.017578
605631.0,-0.761719,-5.769531,7.957031,-0.027344,-0.066406,-0.027344,-0.308594,-0.007812,-0.023438
605642.0,-0.761719,-5.695312,7.921875,-0.027344,0.039062,-0.046875,-0.300781,-0.001953,-0.029297
605672.0,-0.761719,-5.847656,7.886719,-0.035156,-0.042969,-0.03125,-0.3125,-0.007812,-0.046875
605688.0,-0.761719,-5.847656,7.921875,-0.042969,-0.019531,-0.015625,-0.314453,-0.009766,-0.056641
605712.0,-0.722656,-5.960938,7.808594,-0.011719,-0.070312,-0.046875,-0.302734,-0.005859,-0.056641
605729.0,-0.722656,-6.0,7.808594,-0.019531,-0.039062,-0.023438,-0.292969,-0.001953,-0.039062
605743.0,-0.683594,-6.0,7.765625,0.019531,-0.078125,0.007812,-0.292969,0.0,-0.029297
605758.0,-0.683594,-6.039062,7.765625,-0.019531,-0.054688,0.03125,-0.287109,0.001953,-0.013672
605783.0,-0.683594,-6.117188,7.730469,0.011719,-0.0625,0.003906,-0.287109,0.005859,-0.003906
605798.0,-0.722656,-6.078125,7.6875,-0.019531,0.0,-0.019531,-0.279297,0.023438,0.011719
605822.0,-0.648438,-6.078125,7.648438,0.0625,0.0625,-0.003906,-0.298828,0.033203,0.005859
605838.0,-0.722656,-6.191406,7.691406,0.0625,0.085938,0.058594,-0.332031,0.003906,-0.009766
605870.0,-0.761719,-6.34375,7.808594,-0.058594,-0.085938,0.242188,-0.308594,-0.009766,-0.019531
605901.0,-0.683594,-6.460938,7.609375,0.019531,-0.148438,0.097656,-0.158203,0.068359,-0.003906
605918.0,-0.570312,-6.5,7.726562,-0.011719,-0.179688,0.183594,-0.097656,0.171875,0.044922
605938.0,0.960938,-7.148438,9.035156,0.601562,-0.59375,0.964844,0.207031,0.681641,0.152344
605958.0,1.957031,-6.652344,10.601562,1.757812,-0.828125,1.53125,0.775391,1.488281,0.177734
605972.0,1.84375,-6.078125,10.5625,2.179688,0.867188,2.179688,0.949219,1.574219,0.052734
605988.0,-0.839844,-3.777344,8.878906,0.953125,1.566406,1.796875,1.013672,1.144531,-0.212891
606000.0,-0.761719,-3.050781,7.953125,0.605469,2.917969,0.253906,0.90625,0.960938,-0.292969
606018.0,-0.992188,-3.433594,7.996094,0.613281,2.816406,-0.027344,0.697266,0.908203,-0.308594
606038.0,-2.066406,-3.855469,8.375,0.476562,2.417969,0.207031,0.591797,0.945312,-0.134766
606051.0,-2.675781,-4.007812,8.570312,-1.558594,1.542969,0.910156,0.576172,0.857422,-0.029297
606067.0,-3.710938,-4.929688,8.953125,-1.839844,0.996094,1.117188,0.564453,0.472656,0.208984
606091.0,-2.714844,-4.277344,8.03125,-0.878906,1.238281,0.089844,0.457031,0.064453,0.361328
606108.0,-1.988281,-4.199219,7.804688,-0.472656,1.351562,-0.125,0.253906,-0.121094,0.392578
606128.0,-1.222656,-4.582031,8.113281,0.402344,0.984375,0.027344,0.101562,-0.113281,0.390625
606148.0,-1.105469,-4.621094,8.113281,0.761719,0.800781,0.089844,-0.009766,-0.056641,0.333984
606161.0,-1.03125,-4.738281,8.148438,0.984375,0.546875,0.125,-0.054688,-0.011719,0.285156
606178.0,-0.953125,-5.003906,8.265625,1.039062,0.429688,0.242188,-0.107422,0.115234,0.181641
606200.0,-1.605469,-5.769531,8.800781,0.394531,-0.402344,0.792969,-0.107422,0.183594,0.126953
606241.0,-1.988281,-4.964844,8.414062,0.027344,0.386719,0.402344,0.064453,0.005859,-0.267578
606257.0,-2.371094,-4.851562,8.609375,-0.101562,0.460938,0.472656,0.074219,0.072266,-0.261719
606281.0,-3.597656,-5.425781,9.878906,-1.613281,-0.089844,1.835938,0.236328,0.171875,-0.103516
606298.0,-4.210938,-5.695312,10.367188,-1.980469,-0.503906,2.285156,0.587891,0.105469,0.125
606312.0,-4.210938,-5.15625,9.914062,-1.839844,0.8125,0.953125,0.697266,0.013672,0.207031
606327.0,-3.0625,-3.550781,8.109375,-1.367188,1.324219,0.261719,0.666016,-0.066406,0.294922
606352.0,-3.328125,-3.625,8.726562,-1.242188,1.335938,0.46875,0.609375,0.005859,0.441406
606367.0,-3.328125,-3.472656,8.730469,-1.304688,1.339844,0.503906,0.572266,-0.035156,0.585938
606391.0,-2.410156,-3.355469,8.378906,-0.222656,1.363281,0.011719,0.455078,-0.048828,0.666016
606417.0,-2.371094,-4.351562,9.144531,0.0,1.230469,0.019531,0.357422,0.126953,0.736328
606438.0,-2.832031,-4.621094,9.074219,-0.496094,-0.183594,0.855469,0.412109,0.005859,0.654297
606462.0,-2.371094,-4.46875,8.574219,0.234375,-0.070312,-0.089844,0.392578,-0.091797,0.490234
606477.0,-1.910156,-4.351562,7.882812,0.441406,-0.125,-0.304688,0.302734,-0.041016,0.347656
606500.0,-1.605469,-3.777344,6.660156,0.855469,0.449219,-1.90625,0.201172,-0.029297,0.25
606517.0,-1.757812,-5.769531,8.113281,0.824219,-0.25,-1.417969,-0.115234,0.292969,0.058594
606541.0,-3.175781,-6.652344,8.492188,-0.613281,-2.433594,-0.042969,0.148438,0.488281,0.130859
606556.0,-3.253906,-5.695312,7.34375,-0.796875,-1.921875,-0.574219,0.208984,0.166016,-0.009766
606580.0,-2.140625,-4.773438,6.15625,0.5,-0.617188,-2.386719,0.03125,-0.027344,-0.181641
606597.0,-1.988281,-4.660156,5.960938,0.597656,-0.609375,-2.464844,-0.210938,0.015625,-0.318359
606620.0,-2.292969,-5.886719,7.039062,0.308594,-1.636719,-1.476562,-0.335938,0.210938,-0.367188
606637.0,-3.175781,-6.574219,7.730469,-0.058594,-2.054688,-1.070312,-0.132812,0.441406,-0.210938
606651.0,-3.558594,-6.921875,8.035156,-1.199219,-2.800781,-0.339844,0.052734,0.476562,-0.121094
606667.0,-4.019531,-6.34375,7.269531,-1.316406,-2.5,-0.601562,0.353516,0.326172,0.009766
606690.0,-3.0625,-5.695312,5.929688,-0.289062,-1.484375,-2.539062,0.400391,0.220703,0.021484
606707.0,-2.714844,-5.84375,5.621094,-0.042969,-1.46875,-2.777344,0.333984,0.150391,-0.007812
606729.0,-2.332031,-6.53125,5.046875,0.503906,-2.425781,-3.453125,0.308594,0.203125,-0.03125
606769.0,-2.832031,-7.414062,4.167969,0.121094,-3.371094,-4.308594,0.203125,0.462891,-0.185547
606802.0,-2.832031,-7.035156,2.980469,0.214844,-2.964844,-5.449219,-0.119141,0.486328,-0.333984
606826.0,-2.90625,-7.757812,3.324219,0.234375,-3.476562,-5.160156,-0.386719,0.707031,-0.296875
606846.0,-15.011719,-5.347656,21.097656,-16.054688,4.125,7.007812,-0.349609,-3.662109,-0.933594
606866.0,-1.566406,2.65625,22.441406,-6.765625,5.0,14.859375,0.160156,-2.767578,-0.597656
606887.0,11.613281,2.808594,2.097656,14.226562,9.421875,-5.804688,-1.017578,-1.408203,-1.210938
606907.0,1.269531,-9.179688,11.449219,13.460938,7.207031,-6.503906,-0.753906,-0.458984,-0.742188
606920.0,-1.757812,-7.761719,10.828125,0.425781,-1.335938,0.675781,-0.619141,-0.332031,-0.470703
606937.0,-1.644531,-8.109375,11.328125,0.617188,-0.507812,0.210938,-0.558594,-0.412109,-0.339844
606959.0,-2.792969,-5.695312,8.335938,-1.371094,-0.875,-0.105469,0.113281,-0.097656,-0.042969
606976.0,-1.644531,-4.851562,8.800781,-1.003906,0.230469,-0.105469,-0.041016,-0.189453,-0.091797
606999.0,-1.375,-5.121094,8.453125,-0.023438,-0.292969,0.003906,0.001953,-0.113281,-0.078125
607016.0,-1.566406,-5.082031,8.417969,-0.261719,-0.292969,0.050781,0.054688,-0.111328,-0.082031
607031.0,-1.527344,-4.890625,8.378906,-0.253906,0.207031,-0.15625,0.072266,-0.107422,-0.099609
607046.0,-1.71875,-4.46875,8.265625,-0.421875,0.4375,-0.234375,-0.003906,-0.175781,-0.152344
607069.0,-0.761719,-5.425781,8.730469,0.480469,-0.589844,0.257812,-0.003906,-0.185547,-0.154297
607085.0,-0.992188,-4.929688,8.570312,0.339844,-0.398438,0.179688,0.046875,-0.095703,-0.083984
607109.0,-0.953125,-5.273438,8.613281,0.226562,-0.4375,0.125,0.009766,-0.085938,-0.070312
607125.0,-0.992188,-5.082031,8.609375,0.1875,-0.359375,0.132812,0.017578,-0.041016,-0.025391
607149.0,-1.144531,-4.890625,8.457031,0.019531,-0.046875,-0.019531,0.007812,-0.041016,-0.029297
607166.0,-1.144531,-4.890625,8.457031,0.011719,-0.046875,-0.066406,-0.001953,-0.052734,-0.035156
607185.0,-1.03125,-5.042969,8.53125,0.003906,-0.160156,0.011719,0.013672,-0.058594,-0.041016
607206.0,-0.953125,-5.003906,8.53125,0.210938,-0.191406,0.085938,0.044922,-0.041016,-0.025391
607220.0,-0.992188,-4.964844,8.492188,0.125,-0.046875,-0.035156,0.052734,-0.03125,-0.019531
607235.0,-0.953125,-4.773438,8.457031,0.164062,0.023438,-0.035156,0.035156,-0.013672,-0.021484
607260.0,-1.105469,-4.660156,8.378906,0.003906,0.175781,-0.113281,0.003906,-0.009766,-0.023438
607275.0,-1.105469,-4.738281,8.417969,0.03125,0.105469,-0.066406,-0.035156,-0.015625,-0.035156
607299.0,-0.953125,-4.964844,8.53125,0.140625,-0.113281,0.050781,-0.048828,-0.011719,-0.025391
607316.0,-0.953125,-4.964844,8.53125,0.140625,-0.105469,0.050781,-0.039062,-0.003906,-0.017578
607338.0,-0.992188,-4.964844,8.492188,0.09375,-0.089844,0.019531,-0.041016,0.001953,-0.011719
607356.0,-1.144531,-4.890625,8.457031,0.015625,-0.015625,-0.019531,-0.033203,-0.011719,-0.021484
607386.0,-0.992188,-4.851562,8.414062,0.015625,0.078125,-0.089844,-0.082031,-0.046875,-0.041016
607409.0,-0.914062,-4.964844,8.453125,0.148438,-0.042969,-0.003906,-0.087891,-0.048828,-0.037109
607425.0,-0.839844,-5.003906,8.417969,0.140625,-0.074219,-0.035156,-0.083984,-0.037109,-0.023438
607448.0,-0.914062,-4.964844,8.453125,0.132812,-0.011719,0.019531,-0.076172,-0.027344,-0.019531
607465.0,-0.992188,-4.964844,8.453125,0.085938,-0.011719,0.019531,-0.078125,-0.027344,-0.023438
607489.0,-1.03125,-4.929688,8.378906,-0.007812,0.046875,-0.050781,-0.097656,-0.042969,-0.037109
607505.0,-0.878906,-5.082031,8.457031,0.0625,-0.050781,-0.042969,-0.089844,-0.039062,-0.035156
607520.0,-0.878906,-5.121094,8.457031,0.09375,-0.074219,0.042969,-0.085938,-0.03125,-0.029297
607545.0,-0.914062,-5.042969,8.414062,0.160156,-0.097656,0.089844,-0.066406,-0.019531,-0.023438
607565.0,-0.878906,-5.082031,8.417969,0.085938,-0.082031,0.019531,-0.066406,-0.021484,-0.023438
607585.0,-0.839844,-5.121094,8.457031,0.105469,-0.152344,0.011719,-0.058594,-0.007812,-0.013672
607599.0,-0.839844,-5.082031,8.417969,0.097656,-0.144531,0.019531,-0.056641,-0.001953,-0.011719
607615.0,-0.878906,-5.042969,8.417969,0.089844,-0.167969,0.019531,-0.044922,0.001953,-0.009766
607639.0,-0.914062,-5.042969,8.335938,0.054688,-0.074219,-0.089844,-0.0625,-0.013672,-0.021484
607656.0,-0.914062,-5.042969,8.375,0.046875,-0.105469,-0.050781,-0.070312,-0.011719,-0.023438
607684.0,-0.839844,-5.121094,8.308594,0.074219,-0.082031,-0.027344,-0.082031,0.001953,-0.019531
607708.0,-0.878906,-5.082031,8.308594,0.066406,-0.042969,-0.09375,-0.082031,-0.001953,-0.019531
607726.0,-0.914062,-5.082031,8.265625,0.03125,-0.042969,-0.050781,-0.103516,-0.011719,-0.025391
607747.0,-0.878906,-5.15625,8.335938,0.050781,-0.078125,-0.027344,-0.109375,-0.017578,-0.03125
607758.0,-0.878906,-5.195312,8.339844,0.035156,-0.101562,-0.027344,-0.115234,-0.015625,-0.029297
607787.0,-0.878906,-5.234375,8.304688,0.027344,-0.109375,-0.03125,-0.111328,-0.007812,-0.019531
607827.0,-0.953125,-5.121094,8.265625,-0.0625,0.050781,-0.054688,-0.082031,-0.003906,-0.019531
607844.0,-0.839844,-5.195312,8.308594,0.003906,-0.015625,-0.039062,-0.095703,-0.015625,-0.03125
607868.0,-0.839844,-5.273438,8.304688,0.113281,-0.09375,0.015625,-0.09375,-0.009766,-0.023438
607885.0,-0.800781,-5.3125,8.304688,0.113281,-0.121094,0.023438,-0.09375,0.019531,-0.009766
607899.0,-0.800781,-5.347656,8.304688,-0.003906,-0.097656,0.03125,-0.083984,0.027344,-0.003906
607914.0,-0.914062,-5.347656,8.265625,-0.039062,-0.054688,-0.007812,-0.0625,0.029297,-0.007812
607936.0,-0.914062,-5.234375,8.269531,-0.039062,0.046875,0.007812,-0.058594,0.025391,-0.013672
607976.0,-0.839844,-5.347656,8.226562,0.042969,-0.035156,-0.015625,-0.076172,0.029297,-0.015625
608016.0,-0.878906,-5.386719,8.226562,0.003906,-0.042969,0.0,-0.048828,0.035156,-0.003906
608057.0,-0.878906,-5.3125,8.1875,0.019531,0.046875,-0.023438,-0.060547,0.025391,-0.015625
608087.0,-0.800781,-5.347656,8.230469,0.097656,0.027344,0.023438,-0.089844,0.037109,-0.007812
608104.0,-0.800781,-5.464844,8.191406,0.058594,-0.003906,0.0,-0.109375,0.060547,0.009766
608127.0,-0.992188,-5.425781,8.152344,-0.078125,-0.011719,-0.023438,-0.103516,0.058594,0.013672
608144.0,-0.992188,-5.386719,8.109375,-0.078125,0.035156,-0.015625,-0.109375,0.044922,-0.007812
608167.0,-0.878906,-5.464844,8.113281,0.042969,-0.011719,-0.027344,-0.111328,0.052734,-0.009766
608207.0,-0.953125,-5.503906,8.148438,-0.015625,-0.011719,0.039062,-0.126953,0.056641,-0.007812
608239.0,-0.992188,-5.578125,8.113281,-0.039062,-0.054688,0.027344,-0.126953,0.064453,-0.011719
608278.0,-1.070312,-5.539062,8.074219,-0.101562,0.023438,0.011719,-0.111328,0.056641,-0.019531
608294.0,-1.03125,-5.503906,8.03125,-0.09375,-0.007812,0.058594,-0.119141,0.052734,-0.03125
608316.0,-1.03125,-5.464844,8.191406,-0.046875,0.144531,0.15625,-0.203125,0.056641,-0.046875
608356.0,-1.105469,-5.539062,8.191406,-0.128906,0.171875,0.234375,-0.417969,0.060547,-0.119141
608387.0,-0.800781,-5.695312,7.882812,0.167969,0.164062,0.039062,-0.634766,0.046875,-0.177734
608404.0,-0.800781,-5.847656,7.84375,0.160156,0.113281,0.046875,-0.777344,0.035156,-0.154297
608426.0,-0.953125,-5.960938,7.730469,-0.015625,0.148438,0.074219,-0.820312,0.029297,-0.154297
608444.0,-1.03125,-6.117188,7.648438,-0.0625,0.101562,0.128906,-0.869141,0.013672,-0.185547
608466.0,-1.070312,-6.308594,7.460938,-0.179688,0.066406,0.023438,-0.875,-0.001953,-0.212891
608483.0,-0.953125,-6.421875,7.308594,-0.15625,0.0625,0.039062,-0.845703,-0.029297,-0.285156
608507.0,-0.839844,-6.652344,7.1875,-0.027344,-0.019531,-0.027344,-0.806641,-0.048828,-0.316406
608523.0,-0.839844,-6.765625,7.082031,-0.011719,-0.03125,-0.011719,-0.791016,-0.039062,-0.347656
608547.0,-0.648438,-6.882812,6.964844,0.0625,-0.015625,-0.046875,-0.775391,0.013672,-0.351562
608573.0,-0.457031,-6.925781,6.769531,0.003906,0.195312,-0.066406,-0.779297,0.041016,-0.341797
608594.0,-0.570312,-7.035156,6.808594,0.09375,0.050781,-0.027344,-0.791016,0.060547,-0.300781
608617.0,-0.53125,-7.109375,6.578125,0.046875,0.136719,-0.046875,-0.822266,0.134766,-0.289062
608633.0,-0.570312,-7.308594,6.617188,0.0,0.125,0.023438,-0.853516,0.222656,-0.283203
608657.0,-0.492188,-7.414062,6.273438,0.054688,0.058594,-0.09375,-0.865234,0.205078,-0.253906
608673.0,-0.800781,-7.417969,6.3125,-0.070312,-0.070312,0.015625,-0.824219,0.242188,-0.261719
608696.0,-0.339844,-7.914062,6.042969,0.191406,-0.234375,-0.074219,-0.763672,0.369141,-0.283203
608713.0,-0.53125,-8.03125,5.8125,0.074219,-0.265625,-0.203125,-0.681641,0.615234,-0.337891
608736.0,-0.722656,-8.035156,5.582031,-0.160156,-0.179688,-0.308594,-0.585938,0.869141,-0.470703
608753.0,-0.648438,-8.222656,5.699219,-0.183594,-0.21875,-0.222656,-0.482422,1.130859,-0.646484
608773.0,-0.878906,-8.261719,5.582031,-0.074219,-0.230469,-0.242188,-0.345703,1.443359,-0.822266
608793.0,-1.03125,-8.222656,5.546875,-0.3125,-0.292969,-0.210938,-0.214844,1.572266,-1.013672
608812.0,-0.992188,-8.378906,5.429688,-0.175781,-0.253906,-0.269531,-0.029297,1.849609,-1.201172
608833.0,-1.070312,-8.300781,5.546875,-0.320312,-0.3125,-0.171875,0.164062,2.125,-1.427734
608852.0,-1.261719,-8.335938,5.546875,-0.542969,-0.3125,-0.003906,0.328125,2.324219,-1.6875
608873.0,-1.261719,-8.222656,5.46875,-0.582031,-0.273438,-0.046875,0.466797,2.509766,-1.9375
608892.0,-1.261719,-8.109375,5.390625,-0.605469,-0.183594,-0.164062,0.613281,2.703125,-2.171875
608917.0,-0.953125,-8.109375,5.277344,-0.375,-0.148438,-0.488281,0.748047,2.859375,-2.382812
608942.0,-0.878906,-7.492188,4.625,-0.683594,0.089844,-0.890625,0.955078,3.136719,-2.476562
608973.0,-0.300781,-7.6875,6.351562,0.382812,-0.148438,-0.308594,1.039062,2.914062,-2.277344
608995.0,0.386719,-7.1875,6.503906,0.925781,0.414062,0.277344,1.03125,2.662109,-2.152344
609012.0,0.578125,-6.996094,6.960938,1.402344,0.398438,0.597656,0.90625,2.185547,-1.480469
609034.0,0.503906,-6.882812,7.503906,1.136719,0.53125,1.054688,0.732422,1.464844,-0.960938
609052.0,0.921875,-7.035156,7.953125,1.417969,0.484375,1.246094,0.609375,0.949219,-0.490234
609075.0,0.578125,-7.800781,7.804688,1.3125,-0.550781,1.195312,0.746094,0.591797,-0.181641
609092.0,0.195312,-7.574219,7.460938,0.914062,-0.453125,0.875,0.886719,0.404297,-0.009766
609115.0,1.726562,-6.765625,8.378906,2.570312,0.242188,1.519531,1.132812,0.662109,0.113281
609132.0,3.261719,-6.230469,9.496094,3.132812,0.5,2.054688,1.529297,1.0625,-0.191406
609147.0,4.675781,-5.886719,9.457031,6.980469,0.757812,2.027344,1.552734,1.003906,-0.773438
609172.0,6.707031,-5.886719,8.796875,7.8125,0.945312,1.457031,1.628906,1.166016,-2.78125
609192.0,4.484375,-6.0,7.769531,6.171875,0.375,0.6875,1.570312,1.273438,-4.076172
609212.0,2.492188,-6.117188,6.621094,5.085938,0.234375,0.164062,1.359375,1.492188,-5.042969
609232.0,0.347656,-6.308594,4.96875,0.949219,-0.164062,-2.566406,1.019531,2.128906,-5.425781
609255.0,-0.148438,-7.757812,5.199219,-0.453125,-2.066406,-2.832031,0.816406,3.361328,-5.109375
609296.0,-3.671875,-7.148438,1.90625,-3.933594,-1.644531,-6.511719,0.251953,4.853516,-4.087891
609311.0,-4.476562,-9.257812,1.90625,-3.976562,-1.613281,-6.734375,-0.154297,4.914062,-3.669922
609329.0,-8.230469,-17.835938,17.847656,-4.023438,-3.78125,-6.25,-0.039062,4.964844,-3.490234
609352.0,-6.550781,-5.769531,5.964844,-5.859375,-2.882812,-4.097656,1.236328,1.240234,-2.730469
609375.0,-1.566406,-7.609375,11.449219,-0.964844,-2.3125,3.1875,0.601562,0.056641,-1.40625
609391.0,3.757812,-5.273438,7.847656,1.195312,0.589844,-0.0625,0.537109,-0.197266,-0.019531
609415.0,-2.101562,-4.390625,8.957031,-1.539062,0.734375,0.585938,0.378906,0.355469,0.357422
609431.0,-1.605469,-4.582031,8.535156,-2.582031,1.238281,0.003906,-0.109375,-0.021484,0.177734
609455.0,-1.144531,-5.3125,8.648438,-0.519531,-0.195312,0.289062,-0.078125,-0.007812,0.123047
609472.0,-1.910156,-5.121094,8.574219,-1.246094,-0.117188,0.21875,0.046875,-0.103516,-0.046875
609486.0,-1.375,-5.082031,8.453125,-0.3125,-0.011719,0.019531,0.09375,-0.142578,-0.117188
609501.0,-0.457031,-4.929688,8.375,-0.089844,0.058594,0.011719,0.144531,-0.169922,-0.140625
609526.0,0.234375,-5.003906,8.570312,0.773438,0.058594,0.1875,0.082031,-0.144531,-0.046875
609541.0,-0.226562,-4.507812,8.496094,0.640625,0.324219,0.105469,-0.058594,-0.097656,0.023438
609565.0,-0.53125,-5.082031,8.453125,-0.03125,0.003906,0.089844,-0.193359,-0.085938,-0.005859
609582.0,-0.722656,-5.273438,8.414062,-0.230469,-0.132812,0.136719,-0.085938,-0.091797,-0.03125
609596.0,-0.722656,-5.273438,8.375,0.097656,-0.15625,0.105469,-0.03125,-0.115234,-0.050781
609611.0,-0.1875,-4.929688,8.375,0.3125,-0.039062,0.027344,0.035156,-0.097656,-0.027344
609636.0,-0.339844,-4.851562,8.535156,0.097656,0.257812,0.183594,-0.013672,-0.066406,-0.007812
609675.0,-0.339844,-5.121094,8.496094,0.074219,-0.003906,0.152344,-0.029297,-0.03125,0.0
609691.0,-0.417969,-5.121094,8.570312,0.035156,-0.003906,0.191406,0.017578,-0.005859,-0.001953
609715.0,-0.339844,-4.964844,8.496094,0.074219,0.152344,0.144531,0.035156,0.003906,-0.005859
609731.0,-0.265625,-5.003906,8.53125,0.113281,0.1875,0.144531,0.013672,0.013672,0.001953
609754.0,-0.300781,-5.042969,8.53125,0.121094,0.066406,0.183594,0.0,0.039062,0.023438
609771.0,-0.417969,-5.042969,8.535156,0.089844,0.105469,0.183594,-0.009766,0.046875,0.027344
609794.0,-0.417969,-5.042969,8.535156,0.019531,0.058594,0.191406,-0.003906,0.050781,0.023438
609811.0,-0.457031,-5.042969,8.496094,-0.003906,0.058594,0.152344,0.0,0.048828,0.017578
609825.0,-0.457031,-5.042969,8.535156,0.011719,0.097656,0.113281,-0.001953,0.044922,0.011719
609840.0,-0.457031,-5.042969,8.496094,0.050781,0.097656,0.191406,0.005859,0.039062,0.011719
609874.0,-0.492188,-4.964844,8.453125,-0.007812,0.136719,0.113281,-0.001953,0.037109,0.007812
609904.0,-0.457031,-5.042969,8.457031,0.035156,0.058594,0.113281,-0.003906,0.03125,0.009766
609920.0,-0.53125,-5.003906,8.453125,0.035156,0.097656,0.113281,0.005859,0.021484,0.005859
609944.0,-0.457031,-5.042969,8.417969,-0.089844,-0.011719,-0.082031,0.009766,0.023438,0.009766
609961.0,-0.378906,-5.042969,8.496094,-0.042969,-0.050781,-0.003906,0.019531,0.021484,0.013672
609983.0,-0.457031,-5.042969,8.417969,-0.074219,-0.019531,-0.082031,0.021484,0.029297,0.015625
610014.0,-0.417969,-5.042969,8.457031,-0.011719,-0.027344,-0.042969,0.029297,0.039062,0.019531
610031.0,-0.53125,-5.003906,8.453125,-0.050781,0.011719,-0.011719,0.033203,0.050781,0.023438
610054.0,-0.53125,-5.003906,8.492188,-0.101562,0.003906,-0.003906,0.041016,0.046875,0.021484
610070.0,-0.53125,-5.003906,8.53125,-0.09375,0.003906,-0.050781,0.044922,0.042969,0.017578
610094.0,-0.53125,-4.964844,8.492188,-0.070312,0.027344,-0.011719,0.052734,0.039062,0.015625
610110.0,-0.457031,-5.003906,8.535156,-0.03125,-0.011719,-0.011719,0.050781,0.033203,0.019531
610133.0,-0.492188,-5.003906,8.53125,-0.007812,-0.035156,0.019531,0.072266,0.035156,0.019531
610151.0,-0.492188,-4.964844,8.492188,0.027344,-0.042969,-0.019531,0.087891,0.039062,0.021484
610165.0,-0.570312,-4.890625,8.492188,-0.070312,-0.003906,-0.027344,0.091797,0.037109,0.023438
610191.0,-0.609375,-4.851562,8.53125,-0.0625,0.054688,-0.035156,0.089844,0.021484,0.023438
610205.0,-0.570312,-4.929688,8.574219,-0.007812,-0.007812,0.023438,0.082031,0.023438,0.025391
610220.0,-0.648438,-4.851562,8.574219,-0.160156,0.101562,0.023438,0.070312,0.011719,0.013672
610243.0,-0.722656,-4.773438,8.53125,-0.191406,0.117188,-0.019531,0.068359,0.011719,0.009766
610283.0,-0.648438,-4.8125,8.574219,-0.09375,0.054688,0.007812,0.039062,0.001953,0.005859
610300.0,-0.570312,-4.738281,8.496094,0.0625,0.054688,0.007812,0.011719,0.011719,0.003906
610323.0,-0.722656,-4.8125,8.535156,-0.160156,0.054688,-0.027344,-0.009766,0.003906,-0.007812
610340.0,-0.648438,-4.851562,8.53125,-0.121094,0.007812,0.007812,-0.025391,-0.001953,-0.037109
610359.0,-0.722656,-4.8125,8.535156,-0.199219,0.121094,0.015625,-0.048828,-0.029297,-0.0625
610380.0,-0.683594,-4.738281,8.574219,-0.121094,0.09375,0.015625,-0.082031,-0.035156,-0.076172
610400.0,-0.722656,-4.621094,8.535156,-0.121094,0.207031,-0.003906,-0.128906,-0.039062,-0.089844
610434.0,-0.570312,-4.851562,8.570312,-0.03125,0.070312,0.054688,-0.212891,-0.033203,-0.09375
610450.0,-0.417969,-5.042969,8.535156,0.007812,0.007812,-0.011719,-0.251953,-0.029297,-0.095703
610472.0,-0.457031,-5.003906,8.496094,0.058594,0.003906,0.027344,-0.28125,-0.021484,-0.09375
610512.0,-0.378906,-5.195312,8.378906,0.105469,-0.078125,-0.019531,-0.380859,-0.013672,-0.115234
610530.0,-0.609375,-5.273438,8.378906,0.105469,-0.007812,0.003906,-0.396484,0.011719,-0.183594
610544.0,-0.53125,-5.3125,8.335938,0.003906,-0.128906,-0.070312,-0.394531,0.027344,-0.220703
610559.0,-0.300781,-5.503906,8.230469,-0.117188,-0.175781,-0.007812,-0.34375,0.060547,-0.304688
610583.0,0.308594,-5.769531,8.148438,0.738281,-0.433594,-0.117188,-0.255859,0.25,-0.484375
610599.0,-0.457031,-5.734375,8.304688,0.546875,-0.417969,-0.0625,-0.121094,0.427734,-0.716797
610623.0,0.308594,-5.808594,7.996094,0.730469,-0.425781,-0.238281,0.039062,0.582031,-0.953125
610639.0,0.386719,-5.617188,7.921875,0.925781,-0.425781,-0.199219,0.179688,0.839844,-1.263672
610652.0,0.042969,-5.617188,7.992188,0.464844,-0.25,-0.246094,0.210938,0.958984,-1.423828
610679.0,0.308594,-5.464844,8.226562,-0.464844,-0.082031,0.007812,0.1875,1.003906,-1.730469
610702.0,0.386719,-5.3125,8.191406,0.777344,0.007812,-0.085938,0.173828,1.095703,-1.798828
610734.0,0.15625,-5.617188,8.335938,0.539062,-0.296875,0.066406,0.021484,1.564453,-2.326172
610771.0,0.730469,-6.574219,7.882812,1.121094,-1.207031,-0.359375,0.033203,2.150391,-3.380859
610810.0,1.039062,-8.074219,7.652344,1.34375,-2.6875,-0.582031,0.158203,2.195312,-3.949219
610831.0,1.691406,-7.453125,6.273438,1.902344,-2.097656,-1.992188,0.353516,1.986328,-4.052734
610853.0,3.335938,-7.035156,7.347656,3.421875,-1.722656,-0.941406,0.296875,1.822266,-4.048828
610869.0,3.488281,-6.191406,7.152344,4.003906,-1.625,-0.796875,0.234375,1.763672,-3.599609
610884.0,2.378906,-5.886719,7.765625,1.757812,-0.828125,-0.753906,0.199219,1.763672,-3.378906
610909.0,-0.339844,-5.082031,7.847656,-0.757812,1.027344,-1.121094,0.150391,1.839844,-2.408203
610923.0,-1.453125,-3.816406,7.191406,-1.820312,1.882812,-1.128906,0.085938,1.810547,-2.027344
610939.0,-2.332031,-2.898438,7.925781,-1.949219,2.183594,-1.019531,-0.027344,1.912109,-1.193359
610963.0,-5.320312,-3.433594,10.222656,-5.007812,1.761719,1.859375,0.074219,1.830078,-0.310547
610979.0,-6.546875,-3.585938,8.570312,-5.601562,1.484375,1.445312,0.064453,1.212891,0.486328
610992.0,-7.773438,-4.8125,8.6875,-5.367188,-0.867188,0.527344,0.0,0.732422,0.576172
611018.0,-0.109375,-4.621094,7.84375,-0.257812,-0.578125,0.152344,0.119141,0.207031,0.142578
611042.0,-2.753906,-4.046875,8.652344,-1.878906,1.078125,0.296875,0.074219,0.351562,0.123047
611059.0,-2.140625,-5.539062,8.375,-2.929688,-0.070312,0.410156,-0.037109,-0.007812,-0.050781
611073.0,-0.761719,-5.386719,8.457031,-0.09375,-0.453125,0.410156,0.021484,-0.035156,-0.087891
611088.0,-1.105469,-4.773438,8.453125,-0.492188,0.082031,0.066406,0.041016,-0.130859,-0.144531
611113.0,-0.378906,-5.195312,8.457031,0.457031,-0.078125,0.097656,0.052734,-0.113281,-0.111328
611128.0,-0.339844,-4.773438,8.453125,0.519531,0.226562,-0.027344,0.042969,-0.044922,-0.058594
611152.0,-0.609375,-5.195312,8.609375,0.203125,-0.09375,0.234375,-0.009766,-0.042969,-0.042969
611169.0,-0.457031,-5.082031,8.457031,0.3125,-0.019531,0.160156,0.003906,-0.015625,-0.007812
611192.0,-0.800781,-4.8125,8.414062,-0.003906,0.289062,0.042969,0.013672,-0.015625,-0.005859
611208.0,-0.914062,-4.890625,8.570312,-0.042969,0.402344,-0.070312,-0.019531,-0.064453,-0.048828
611223.0,-0.761719,-4.8125,8.308594,-0.058594,0.171875,0.195312,-0.039062,-0.068359,-0.066406
611238.0,-0.609375,-4.8125,8.53125,-0.027344,0.179688,0.082031,-0.099609,-0.060547,-0.076172
611263.0,-0.300781,-5.082031,8.574219,0.457031,0.058594,0.21875,-0.146484,0.029297,-0.023438
611278.0,-0.609375,-5.082031,8.574219,0.308594,0.066406,0.183594,-0.158203,0.064453,0.015625
611302.0,-0.53125,-5.082031,8.453125,0.25,0.097656,0.136719,-0.191406,0.066406,0.027344
611319.0,-0.683594,-5.121094,8.492188,0.179688,0.160156,0.144531,-0.208984,0.070312,0.037109
611341.0,-0.722656,-5.195312,8.457031,0.089844,0.054688,0.183594,-0.203125,0.072266,0.029297
611373.0,-0.722656,-5.195312,8.339844,0.113281,0.09375,0.097656,-0.142578,0.052734,0.007812
611412.0,-0.722656,-5.3125,8.339844,0.121094,0.007812,0.113281,-0.099609,0.050781,0.017578
611428.0,-0.761719,-5.347656,8.308594,0.089844,0.054688,0.121094,-0.027344,0.041016,0.023438
611452.0,-0.722656,-5.273438,8.304688,0.144531,0.054688,0.078125,0.001953,0.03125,0.021484
611468.0,-0.722656,-5.15625,8.375,0.113281,0.09375,0.046875,0.019531,0.029297,0.017578
611491.0,-0.683594,-5.234375,8.339844,0.199219,0.085938,0.113281,0.027344,0.041016,0.025391
611508.0,-0.722656,-5.273438,8.335938,0.167969,0.085938,0.152344,0.03125,0.046875,0.035156
611531.0,-0.761719,-5.273438,8.335938,0.144531,0.039062,0.105469,0.050781,0.044922,0.039062
611548.0,-0.761719,-5.234375,8.335938,0.152344,0.03125,0.070312,0.089844,0.041016,0.039062
611571.0,-0.761719,-5.082031,8.378906,0.160156,0.191406,0.136719,0.070312,0.037109,0.025391
611588.0,-0.800781,-5.042969,8.414062,0.128906,0.183594,0.089844,0.052734,0.039062,0.007812
611602.0,-0.800781,-5.082031,8.375,0.097656,0.175781,0.089844,0.042969,0.041016,0.0
611618.0,-0.800781,-5.121094,8.375,0.097656,0.175781,0.128906,0.033203,0.027344,-0.019531
611641.0,-0.761719,-5.121094,8.417969,0.183594,0.128906,0.160156,0.03125,-0.001953,-0.035156
611657.0,-0.761719,-5.082031,8.339844,0.175781,0.121094,0.121094,0.021484,-0.039062,-0.037109
611681.0,-0.761719,-5.121094,8.339844,0.152344,0.113281,0.074219,0.017578,-0.0625,-0.042969
611697.0,-0.761719,-5.121094,8.378906,0.144531,0.191406,0.105469,0.009766,-0.089844,-0.050781
611721.0,-0.761719,-5.15625,8.375,0.121094,0.078125,0.097656,0.017578,-0.099609,-0.054688
611737.0,-0.722656,-5.121094,8.339844,0.105469,0.113281,0.097656,0.019531,-0.107422,-0.056641
611757.0,-0.648438,-5.121094,8.335938,0.160156,0.070312,0.128906,0.035156,-0.091797,-0.050781
611777.0,-0.648438,-5.121094,8.414062,0.109375,0.050781,0.019531,0.037109,-0.068359,-0.037109
611798.0,-0.609375,-5.15625,8.417969,0.09375,0.042969,0.058594,0.041016,-0.042969,-0.021484
611831.0,-0.609375,-5.082031,8.375,0.109375,0.066406,0.003906,0.044922,-0.015625,-0.003906
611847.0,-0.648438,-5.082031,8.414062,0.0625,0.019531,0.003906,0.041016,0.003906,0.013672
611870.0,-0.648438,-5.121094,8.414062,-0.011719,0.042969,0.027344,0.037109,0.011719,0.017578
611887.0,-0.722656,-5.003906,8.378906,-0.011719,0.082031,-0.011719,0.025391,0.017578,0.011719
611910.0,-0.722656,-5.082031,8.417969,-0.011719,0.027344,0.019531,0.017578,0.015625,0.005859
611927.0,-0.722656,-5.042969,8.417969,-0.011719,0.027344,0.019531,0.011719,0.011719,0.0
611941.0,-0.722656,-5.042969,8.417969,-0.003906,0.027344,-0.027344,0.011719,0.009766,0.001953
611956.0,-0.722656,-5.082031,8.417969,-0.003906,0.050781,0.050781,0.011719,-0.001953,-0.007812
611980.0,-0.683594,-5.121094,8.414062,0.027344,-0.027344,0.011719,0.011719,-0.005859,-0.005859
611997.0,-0.722656,-5.121094,8.457031,-0.011719,-0.027344,0.089844,0.015625,-0.017578,-0.001953
612019.0,-0.683594,-5.15625,8.457031,0.019531,-0.070312,0.042969,0.027344,-0.019531,0.003906
612052.0,-0.683594,-5.042969,8.414062,0.019531,0.027344,-0.011719,0.064453,-0.027344,0.013672
612068.0,-0.722656,-5.121094,8.417969,-0.019531,-0.011719,-0.019531,0.072266,-0.033203,0.011719
612092.0,-0.722656,-5.042969,8.417969,0.046875,-0.035156,0.011719,0.085938,-0.03125,0.011719
612107.0,-0.609375,-5.082031,8.453125,0.046875,-0.082031,0.042969,0.087891,-0.017578,0.023438
612131.0,-0.648438,-5.121094,8.492188,0.039062,-0.097656,0.027344,0.103516,-0.013672,0.033203
612147.0,-0.683594,-4.851562,8.453125,0.070312,0.011719,-0.050781,0.109375,-0.003906,0.037109
612169.0,-0.683594,-4.851562,8.414062,0.003906,0.140625,-0.066406,0.091797,-0.011719,0.027344
612208.0,-0.683594,-4.929688,8.496094,0.003906,0.03125,0.003906,0.029297,-0.009766,0.005859
612250.0,-0.761719,-4.851562,8.457031,-0.074219,0.085938,-0.035156,-0.011719,0.001953,0.0
612267.0,-0.648438,-4.890625,8.496094,-0.027344,0.007812,-0.035156,-0.013672,0.003906,-0.001953
612281.0,-0.683594,-4.890625,8.496094,0.011719,0.039062,0.011719,-0.015625,0.003906,-0.001953
612296.0,-0.722656,-4.929688,8.53125,0.011719,0.0,0.011719,-0.013672,0.007812,0.0
612319.0,-0.722656,-4.964844,8.535156,-0.027344,-0.027344,0.050781,-0.017578,0.007812,0.0
612336.0,-0.683594,-4.964844,8.492188,0.011719,-0.066406,0.050781,-0.001953,0.003906,0.0
612359.0,-0.683594,-4.890625,8.496094,0.011719,0.046875,0.011719,-0.005859,0.009766,0.003906
612399.0,-0.683594,-4.964844,8.453125,0.019531,-0.019531,-0.019531,-0.015625,0.019531,0.007812
612416.0,-0.683594,-5.003906,8.492188,0.027344,-0.019531,0.019531,0.003906,0.009766,0.011719
612439.0,-0.722656,-4.964844,8.496094,-0.011719,-0.027344,0.019531,0.019531,0.005859,0.011719
612456.0,-0.722656,-4.929688,8.453125,-0.011719,-0.027344,0.019531,0.017578,0.009766,0.015625
612477.0,-0.722656,-4.851562,8.496094,-0.003906,0.085938,-0.027344,0.001953,0.011719,0.009766
612510.0,-0.683594,-4.964844,8.453125,0.035156,-0.027344,-0.027344,-0.005859,0.001953,0.001953
612526.0,-0.722656,-4.964844,8.496094,-0.003906,0.007812,-0.027344,0.003906,-0.003906,0.0
612549.0,-0.761719,-4.890625,8.492188,-0.042969,0.046875,0.011719,0.001953,-0.003906,0.0
612566.0,-0.722656,-4.890625,8.492188,-0.042969,0.046875,-0.027344,-0.009766,-0.003906,-0.003906
612589.0,-0.683594,-4.929688,8.496094,0.027344,0.007812,0.019531,-0.013672,-0.001953,-0.003906
612606.0,-0.722656,-4.964844,8.496094,-0.011719,0.007812,-0.019531,-0.013672,0.001953,-0.001953
612626.0,-0.683594,-5.003906,8.453125,0.035156,-0.019531,0.019531,-0.005859,0.001953,0.001953
612646.0,-0.683594,-4.964844,8.453125,0.035156,-0.058594,-0.019531,0.0,0.0,-0.003906
612666.0,-0.683594,-4.890625,8.496094,-0.003906,0.015625,-0.019531,-0.005859,-0.005859,-0.003906
612686.0,-0.722656,-4.964844,8.496094,0.027344,0.054688,0.019531,-0.013672,-0.003906,-0.001953
612706.0,-0.722656,-4.929688,8.492188,-0.011719,-0.019531,0.019531,-0.017578,0.005859,-0.007812
612739.0,-0.722656,-5.003906,8.457031,-0.011719,-0.050781,-0.011719,-0.019531,-0.001953,-0.011719
612756.0,-0.722656,-4.964844,8.457031,-0.011719,0.03125,0.027344,-0.013672,-0.019531,-0.019531
612770.0,-0.722656,-4.964844,8.457031,-0.019531,-0.003906,0.027344,-0.011719,-0.019531,-0.023438
612786.0,-0.722656,-4.929688,8.453125,-0.019531,-0.003906,-0.011719,-0.005859,-0.033203,-0.025391
612809.0,-0.683594,-5.003906,8.453125,0.039062,-0.003906,0.027344,0.0,-0.033203,-0.021484
612825.0,-0.683594,-5.003906,8.453125,0.039062,-0.042969,0.027344,0.007812,-0.03125,-0.021484
612847.0,-0.648438,-4.964844,8.492188,0.03125,-0.003906,0.027344,0.009766,-0.033203,-0.017578
612858.0,-0.683594,-4.964844,8.492188,-0.011719,-0.011719,0.027344,0.017578,-0.023438,-0.009766
612889.0,-0.648438,-4.929688,8.496094,0.015625,0.03125,0.019531,0.019531,-0.021484,0.0
612905.0,-0.648438,-4.964844,8.453125,0.015625,-0.011719,0.011719,0.019531,-0.015625,0.001953
612928.0,-0.648438,-4.964844,8.492188,0.015625,-0.011719,0.011719,0.027344,-0.009766,0.005859
612945.0,-0.648438,-4.964844,8.492188,0.015625,-0.019531,0.011719,0.037109,-0.009766,0.005859
612960.0,-0.648438,-5.003906,8.492188,0.007812,-0.019531,0.003906,0.035156,-0.009766,0.013672
612975.0,-0.683594,-4.964844,8.492188,0.007812,-0.066406,0.003906,0.044922,-0.007812,0.015625
612998.0,-0.683594,-4.890625,8.496094,-0.027344,0.046875,-0.003906,0.046875,-0.011719,0.015625
613007.0,-0.683594,-4.8125,8.492188,-0.027344,0.117188,-0.011719,0.044922,-0.011719,0.015625
613038.0,-0.683594,-4.890625,8.496094,-0.027344,0.023438,-0.011719,0.03125,-0.007812,0.013672
613055.0,-0.683594,-4.890625,8.535156,-0.027344,-0.015625,0.027344,0.021484,-0.007812,0.015625
613077.0,-0.683594,-4.890625,8.535156,-0.027344,0.015625,0.027344,0.023438,-0.005859,0.013672
613110.0,-0.683594,-4.890625,8.496094,-0.019531,0.007812,-0.019531,0.017578,-0.009766,0.009766
613126.0,-0.683594,-4.890625,8.535156,-0.019531,0.007812,0.019531,0.015625,-0.009766,0.005859
613148.0,-0.683594,-4.8125,8.492188,-0.019531,0.085938,-0.019531,0.013672,-0.009766,0.005859
613164.0,-0.722656,-4.890625,8.53125,-0.058594,0.046875,0.019531,0.0,-0.015625,-0.003906
613189.0,-0.683594,-4.890625,8.535156,-0.011719,0.0,0.019531,0.009766,-0.017578,-0.005859
613205.0,-0.648438,-4.890625,8.496094,-0.019531,-0.007812,0.019531,0.009766,-0.015625,-0.007812
613226.0,-0.648438,-4.890625,8.535156,0.007812,-0.007812,0.011719,0.007812,-0.017578,-0.005859
613266.0,-0.683594,-4.851562,8.453125,-0.035156,0.03125,-0.066406,0.007812,-0.019531,-0.011719
613306.0,-0.648438,-4.929688,8.535156,0.0,-0.046875,0.019531,0.0,-0.023438,-0.015625
613337.0,-0.570312,-4.929688,8.53125,0.070312,-0.046875,0.019531,0.001953,-0.017578,-0.011719
613355.0,-0.648438,-4.851562,8.492188,0.03125,-0.007812,0.011719,0.005859,-0.015625,-0.007812
613377.0,-0.609375,-4.964844,8.53125,0.023438,-0.082031,0.011719,0.003906,-0.015625,-0.007812
613394.0,-0.570312,-4.929688,8.53125,0.0625,-0.046875,0.011719,0.005859,-0.003906,0.0
613418.0,-0.648438,-4.890625,8.535156,-0.015625,-0.007812,0.011719,0.015625,0.0,0.003906
613434.0,-0.609375,-4.890625,8.535156,-0.015625,-0.007812,0.011719,0.017578,0.001953,0.001953
613457.0,-0.609375,-4.890625,8.535156,0.023438,-0.015625,0.011719,0.011719,0.001953,0.0
613474.0,-0.648438,-4.851562,8.53125,0.015625,0.03125,0.011719,0.009766,0.007812,0.007812
613489.0,-0.683594,-4.890625,8.535156,0.015625,0.03125,0.003906,0.007812,0.007812,0.005859
613504.0,-0.609375,-4.890625,8.535156,0.015625,0.03125,0.003906,0.003906,0.005859,0.005859
613528.0,-0.648438,-4.890625,8.570312,-0.023438,-0.015625,0.039062,0.009766,0.013672,0.007812
613544.0,-0.648438,-4.890625,8.535156,-0.023438,0.023438,0.003906,0.007812,0.011719,0.007812
613568.0,-0.648438,-4.890625,8.535156,-0.015625,-0.015625,-0.003906,0.007812,0.015625,0.011719
613584.0,-0.648438,-4.851562,8.53125,-0.015625,-0.015625,-0.003906,0.003906,0.015625,0.005859
613607.0,-0.648438,-4.890625,8.535156,-0.007812,-0.023438,-0.003906,0.003906,0.009766,0.007812
613624.0,-0.648438,-4.890625,8.570312,-0.007812,-0.023438,-0.003906,0.007812,0.009766,0.003906
613647.0,-0.648438,-4.851562,8.53125,0.0,0.023438,0.003906,0.007812,0.007812,0.001953
613664.0,-0.648438,-4.890625,8.535156,0.0,0.015625,0.003906,0.009766,0.007812,0.001953
613693.0,-0.648438,-4.851562,8.53125,-0.035156,0.015625,0.003906,-0.001953,0.003906,0.001953
613716.0,-0.648438,-4.851562,8.53125,0.007812,0.015625,0.003906,-0.003906,0.005859,0.0
613734.0,-0.648438,-4.890625,8.570312,0.046875,-0.023438,0.003906,-0.001953,0.005859,0.0
613756.0,-0.648438,-4.890625,8.535156,0.007812,-0.023438,0.003906,-0.003906,0.005859,0.001953
613773.0,-0.683594,-4.890625,8.535156,0.007812,-0.015625,0.039062,0.003906,0.001953,0.0
613796.0,-0.648438,-4.890625,8.535156,0.007812,-0.015625,0.003906,-0.003906,0.003906,-0.003906
613813.0,-0.648438,-4.890625,8.535156,-0.027344,0.023438,0.039062,0.0,0.001953,0.0
613836.0,-0.683594,-4.890625,8.496094,-0.027344,-0.015625,-0.050781,0.0,0.001953,0.0
613869.0,-0.648438,-4.890625,8.535156,0.0,-0.015625,-0.003906,0.007812,0.001953,0.0
613907.0,-0.648438,-4.890625,8.570312,0.007812,-0.015625,0.03125,0.009766,0.003906,0.003906
613924.0,-0.648438,-4.851562,8.53125,0.007812,-0.015625,0.03125,0.011719,0.005859,0.005859
613945.0,-0.648438,-4.851562,8.492188,0.007812,0.015625,-0.042969,0.009766,0.005859,0.001953
613987.0,-0.683594,-4.851562,8.53125,-0.027344,0.015625,-0.011719,0.009766,0.003906,0.005859
614004.0,-0.648438,-4.890625,8.535156,0.007812,0.015625,-0.011719,0.007812,0.003906,0.003906
614018.0,-0.648438,-4.851562,8.53125,0.007812,-0.03125,-0.003906,0.007812,0.003906,0.005859
614056.0,-0.648438,-4.851562,8.492188,0.023438,0.007812,-0.042969,0.021484,0.005859,0.007812
614072.0,-0.722656,-4.738281,8.496094,-0.011719,0.039062,-0.003906,0.023438,-0.001953,0.003906
614096.0,-0.683594,-4.851562,8.574219,-0.011719,0.0,0.023438,0.015625,-0.003906,0.0
614136.0,-0.683594,-4.8125,8.53125,-0.011719,0.023438,-0.003906,0.009766,-0.003906,0.0
614168.0,-0.683594,-4.773438,8.535156,-0.019531,0.0625,-0.003906,0.001953,-0.001953,-0.003906
614193.0,-0.683594,-4.8125,8.53125,-0.019531,-0.023438,0.03125,-0.007812,0.0,-0.009766
614207.0,-0.722656,-4.773438,8.574219,-0.011719,0.0625,-0.003906,-0.013672,-0.005859,-0.013672
614222.0,-0.648438,-4.851562,8.53125,0.015625,0.023438,0.003906,-0.019531,-0.003906,-0.019531
614246.0,-0.609375,-4.851562,8.574219,0.046875,-0.015625,0.039062,-0.03125,0.003906,-0.015625
614263.0,-0.648438,-4.851562,8.53125,0.007812,-0.046875,0.003906,-0.027344,0.011719,-0.013672
614286.0,-0.648438,-4.890625,8.535156,0.007812,-0.039062,0.003906,-0.029297,0.005859,-0.011719
614303.0,-0.683594,-4.8125,8.574219,0.046875,0.0,-0.035156,-0.029297,0.007812,-0.011719
614326.0,-0.683594,-4.851562,8.53125,-0.027344,0.007812,0.011719,-0.027344,0.005859,-0.017578
614342.0,-0.648438,-4.890625,8.535156,-0.066406,0.007812,0.011719,-0.029297,-0.003906,-0.019531
614365.0,-0.683594,-4.929688,8.535156,-0.027344,-0.0625,0.011719,-0.023438,-0.007812,-0.017578
614383.0,-0.648438,-4.929688,8.535156,0.007812,-0.0625,0.011719,-0.011719,-0.009766,-0.015625
614397.0,-0.648438,-4.929688,8.535156,0.007812,-0.023438,0.011719,-0.005859,-0.011719,-0.013672
614412.0,-0.683594,-4.851562,8.492188,0.007812,0.015625,0.011719,-0.011719,-0.015625,-0.017578
614435.0,-0.570312,-4.890625,8.53125,0.078125,-0.007812,0.019531,-0.015625,-0.017578,-0.021484
614475.0,-0.648438,-4.851562,8.53125,0.0,0.039062,0.019531,-0.007812,-0.007812,-0.011719
614492.0,-0.648438,-4.851562,8.492188,0.039062,0.039062,0.019531,-0.015625,-0.005859,-0.011719
614515.0,-0.609375,-4.929688,8.535156,0.015625,-0.039062,0.019531,-0.025391,-0.003906,-0.015625
614532.0,-0.609375,-4.929688,8.535156,0.015625,-0.03125,0.019531,-0.025391,0.001953,-0.009766
614553.0,-0.609375,-4.929688,8.496094,-0.023438,0.007812,0.027344,-0.027344,0.0,-0.005859
614586.0,-0.648438,-4.929688,8.496094,-0.023438,-0.023438,-0.011719,-0.027344,0.007812,-0.007812
614602.0,-0.648438,-4.890625,8.496094,0.015625,0.023438,-0.003906,-0.03125,0.005859,-0.005859
614626.0,-0.609375,-4.929688,8.496094,0.023438,-0.007812,-0.003906,-0.035156,0.007812,-0.003906
614642.0,-0.609375,-4.929688,8.496094,-0.023438,-0.007812,-0.003906,-0.027344,0.013672,0.0
614665.0,-0.648438,-4.929688,8.535156,-0.015625,0.0,0.042969,-0.03125,0.011719,-0.001953
614682.0,-0.609375,-4.964844,8.492188,0.023438,0.0,0.042969,-0.027344,0.017578,0.003906
614697.0,-0.609375,-4.929688,8.535156,0.023438,0.015625,0.003906,-0.029297,0.017578,0.001953
614712.0,-0.648438,-4.890625,8.457031,-0.015625,0.015625,0.042969,-0.029297,0.017578,0.001953
614735.0,-0.570312,-4.929688,8.492188,0.0625,0.015625,0.003906,-0.037109,0.019531,-0.001953
614752.0,-0.609375,-4.964844,8.492188,0.03125,0.015625,0.011719,-0.041016,0.021484,0.005859
614774.0,-0.648438,-4.964844,8.492188,0.0,-0.003906,0.019531,-0.039062,0.023438,0.005859
614791.0,-0.683594,-4.964844,8.453125,-0.035156,0.003906,0.011719,-0.03125,0.019531,0.0
614815.0,-0.683594,-4.964844,8.492188,-0.035156,0.011719,0.027344,-0.027344,0.017578,-0.003906
614831.0,-0.683594,-4.964844,8.492188,0.0,-0.027344,-0.019531,-0.025391,0.013672,-0.003906
614854.0,-0.648438,-4.964844,8.453125,0.007812,0.019531,-0.011719,-0.03125,0.007812,-0.003906
614871.0,-0.609375,-4.964844,8.492188,0.007812,0.019531,0.027344,-0.035156,0.009766,0.0
614893.0,-0.683594,-5.003906,8.492188,-0.066406,0.027344,0.035156,-0.039062,0.003906,-0.005859
614911.0,-0.683594,-5.003906,8.492188,0.007812,-0.042969,-0.003906,-0.035156,0.001953,-0.003906
614925.0,-0.722656,-4.964844,8.457031,-0.019531,0.035156,-0.003906,-0.039062,0.0,-0.007812
614942.0,-0.648438,-4.964844,8.453125,-0.019531,0.042969,-0.003906,-0.046875,-0.007812,-0.011719
614965.0,-0.609375,-5.042969,8.453125,0.046875,-0.027344,0.003906,-0.042969,0.003906,-0.003906
614981.0,-0.648438,-5.042969,8.453125,0.046875,-0.019531,0.042969,-0.039062,0.015625,0.001953
615003.0,-0.683594,-5.082031,8.453125,-0.019531,-0.050781,0.011719,-0.03125,0.015625,-0.003906
615044.0,-0.683594,-5.042969,8.414062,-0.019531,-0.003906,-0.019531,-0.041016,0.009766,-0.007812
615061.0,-0.648438,-5.042969,8.453125,0.015625,0.003906,0.019531,-0.044922,0.009766,-0.007812
615076.0,-0.609375,-5.042969,8.453125,0.015625,-0.027344,0.027344,-0.048828,0.009766,-0.005859
615091.0,-0.609375,-5.082031,8.453125,0.023438,-0.027344,-0.011719,-0.041016,0.015625,0.001953
615114.0,-0.648438,-5.082031,8.414062,0.023438,-0.011719,-0.011719,-0.039062,0.019531,0.001953
615131.0,-0.722656,-5.042969,8.378906,-0.019531,0.027344,-0.011719,-0.03125,0.015625,0.0
615154.0,-0.648438,-5.082031,8.414062,0.023438,-0.003906,-0.003906,-0.03125,0.015625,-0.005859
615171.0,-0.648438,-5.082031,8.453125,0.023438,-0.042969,-0.003906,-0.029297,0.017578,-0.001953
615194.0,-0.648438,-5.121094,8.414062,0.03125,-0.035156,0.003906,-0.033203,0.015625,0.0
615234.0,-0.722656,-5.082031,8.378906,-0.042969,0.019531,-0.027344,-0.015625,0.017578,0.003906
615265.0,-0.683594,-5.121094,8.375,0.003906,-0.019531,-0.027344,-0.017578,0.009766,0.0
615281.0,-0.683594,-5.121094,8.414062,0.003906,-0.019531,0.019531,-0.017578,0.007812,-0.001953
615303.0,-0.683594,-5.121094,8.414062,0.003906,-0.011719,0.019531,-0.009766,0.009766,0.0
615314.0,-0.648438,-5.082031,8.453125,0.039062,0.027344,0.058594,-0.013672,0.011719,0.0
615344.0,-0.722656,-5.121094,8.378906,-0.035156,-0.011719,-0.019531,-0.015625,0.015625,-0.003906
615361.0,-0.683594,-5.082031,8.375,0.011719,-0.003906,0.019531,-0.013672,0.013672,0.001953
615384.0,-0.683594,-5.082031,8.375,0.011719,0.035156,-0.011719,-0.015625,0.013672,-0.001953
615401.0,-0.683594,-5.121094,8.414062,-0.027344,0.035156,-0.011719,-0.023438,0.009766,-0.007812
615420.0,-0.648438,-5.121094,8.414062,0.019531,0.035156,-0.058594,-0.027344,0.011719,0.0
615441.0,-0.683594,-5.121094,8.375,0.011719,0.042969,-0.011719,-0.027344,0.011719,0.001953
615455.0,-0.722656,-5.121094,8.339844,-0.027344,0.003906,-0.011719,-0.029297,0.005859,0.001953
615470.0,-0.722656,-5.15625,8.375,-0.027344,-0.023438,-0.011719,-0.027344,0.005859,0.0
615493.0,-0.683594,-5.15625,8.378906,0.011719,-0.023438,-0.003906,-0.025391,0.001953,0.0
615534.0,-0.683594,-5.121094,8.375,0.011719,0.019531,-0.003906,-0.001953,0.0,0.003906
615550.0,-0.722656,-5.121094,8.378906,0.011719,0.019531,-0.003906,-0.003906,-0.005859,-0.005859
615573.0,-0.683594,-5.15625,8.378906,0.011719,-0.015625,-0.003906,-0.007812,-0.005859,0.001953
615590.0,-0.683594,-5.15625,8.378906,0.011719,0.027344,0.003906,-0.001953,-0.005859,-0.005859
615612.0,-0.683594,-5.121094,8.375,0.046875,-0.015625,-0.042969,0.005859,-0.005859,-0.001953
615630.0,-0.683594,-5.15625,8.378906,0.011719,-0.054688,-0.003906,0.007812,-0.009766,-0.003906
615651.0,-0.683594,-5.15625,8.378906,-0.035156,0.019531,-0.003906,0.007812,-0.013672,-0.005859
615684.0,-0.648438,-5.15625,8.378906,0.039062,-0.015625,-0.003906,0.003906,-0.017578,-0.007812
615700.0,-0.683594,-5.121094,8.414062,-0.003906,0.019531,-0.003906,0.007812,-0.015625,-0.005859
615723.0,-0.648438,-5.15625,8.378906,0.03125,-0.015625,-0.003906,0.001953,-0.015625,-0.007812
615740.0,-0.683594,-5.121094,8.375,0.023438,0.019531,-0.003906,0.003906,-0.013672,-0.005859
615763.0,-0.722656,-5.121094,8.378906,-0.050781,0.019531,-0.003906,0.005859,-0.015625,-0.007812
615780.0,-0.683594,-5.121094,8.375,-0.050781,0.019531,-0.003906,0.007812,-0.019531,-0.011719
615801.0,-0.683594,-5.121094,8.414062,0.015625,-0.023438,-0.003906,0.005859,-0.021484,-0.011719
615820.0,-0.683594,-5.121094,8.414062,0.007812,0.011719,-0.011719,0.005859,-0.025391,-0.007812
615840.0,-0.683594,-5.121094,8.375,0.015625,0.011719,-0.011719,0.007812,-0.021484,-0.009766
615860.0,-0.683594,-5.121094,8.414062,-0.027344,0.011719,-0.011719,-0.003906,-0.025391,-0.011719
615889.0,-0.648438,-5.121094,8.375,0.0,-0.03125,0.027344,-0.005859,-0.025391,-0.013672
615912.0,-0.648438,-5.15625,8.417969,-0.007812,-0.03125,0.027344,0.0,-0.029297,-0.013672
615930.0,-0.648438,-5.121094,8.414062,-0.007812,-0.03125,-0.011719,-0.001953,-0.029297,-0.015625
615944.0,-0.648438,-5.121094,8.375,-0.015625,0.042969,0.027344,-0.001953,-0.029297,-0.015625
615960.0,-0.609375,-5.121094,8.375,-0.023438,0.042969,-0.011719,-0.003906,-0.033203,-0.017578
615984.0,-0.609375,-5.15625,8.339844,0.007812,-0.023438,-0.050781,-0.009766,-0.035156,-0.015625
616000.0,-0.570312,-5.15625,8.375,0.039062,-0.023438,-0.011719,0.0,-0.03125,-0.015625
616022.0,-0.609375,-5.121094,8.375,-0.007812,0.011719,-0.011719,0.003906,-0.029297,-0.015625
616063.0,-0.609375,-5.121094,8.414062,-0.023438,0.003906,0.027344,0.003906,-0.037109,-0.015625
616080.0,-0.53125,-5.121094,8.335938,0.015625,0.011719,0.027344,-0.001953,-0.03125,-0.015625
616102.0,-0.570312,-5.121094,8.417969,0.0,0.011719,0.027344,-0.001953,-0.029297,-0.009766
616120.0,-0.570312,-5.121094,8.378906,0.0,0.011719,-0.011719,0.0,-0.029297,-0.015625
616134.0,-0.570312,-5.121094,8.417969,0.0,-0.03125,-0.019531,-0.003906,-0.03125,-0.011719
616149.0,-0.609375,-5.121094,8.375,-0.007812,0.011719,-0.019531,-0.009766,-0.033203,-0.017578
616172.0,-0.570312,-5.121094,8.378906,-0.015625,0.011719,-0.011719,-0.009766,-0.03125,-0.019531
616189.0,-0.53125,-5.15625,8.378906,0.023438,0.003906,-0.011719,-0.015625,-0.033203,-0.021484
616212.0,-0.492188,-5.15625,8.417969,0.046875,-0.023438,0.027344,-0.009766,-0.033203,-0.017578
616228.0,-0.570312,-5.082031,8.378906,0.046875,-0.023438,-0.011719,-0.007812,-0.039062,-0.015625
616252.0,-0.492188,-5.195312,8.375,0.03125,-0.0625,-0.011719,-0.005859,-0.041016,-0.017578
616269.0,-0.492188,-5.195312,8.375,0.03125,-0.0625,-0.011719,0.007812,-0.035156,-0.011719
616323.0,-0.492188,-5.121094,8.375,0.0,0.011719,-0.019531,0.052734,-0.03125,-0.007812
616361.0,-0.53125,-5.121094,8.414062,-0.046875,-0.003906,0.011719,0.039062,-0.023438,-0.005859
616372.0,-0.492188,-5.121094,8.414062,0.0,-0.011719,0.003906,0.029297,-0.017578,-0.005859
616402.0,-0.457031,-5.121094,8.417969,0.027344,-0.011719,0.003906,0.025391,-0.015625,-0.003906
616419.0,-0.492188,-5.121094,8.414062,0.027344,-0.019531,0.003906,0.023438,-0.009766,-0.001953
616442.0,-0.53125,-5.082031,8.453125,-0.046875,0.019531,0.035156,0.019531,-0.009766,0.0
616459.0,-0.492188,-5.082031,8.414062,-0.007812,0.019531,-0.003906,-0.003906,-0.005859,-0.003906
616478.0,-0.570312,-5.082031,8.417969,-0.007812,-0.019531,0.035156,-0.007812,-0.003906,-0.005859
616499.0,-0.53125,-5.082031,8.414062,-0.046875,0.011719,-0.003906,-0.013672,-0.009766,-0.007812
616513.0,-0.53125,-5.082031,8.414062,-0.007812,-0.019531,-0.003906,-0.019531,-0.013672,-0.009766
616529.0,-0.457031,-5.082031,8.417969,-0.007812,-0.019531,-0.003906,-0.027344,-0.013672,-0.013672
616552.0,-0.457031,-5.121094,8.417969,0.019531,-0.011719,0.003906,-0.03125,-0.017578,-0.015625
616568.0,-0.457031,-5.15625,8.375,0.050781,-0.046875,-0.003906,-0.013672,-0.017578,-0.009766
616592.0,-0.53125,-5.082031,8.375,-0.0625,0.035156,-0.035156,-0.005859,-0.011719,-0.011719
616608.0,-0.492188,-5.082031,8.375,0.011719,-0.003906,0.003906,-0.019531,-0.011719,-0.011719
616632.0,-0.457031,-5.082031,8.417969,0.011719,0.042969,0.011719,-0.042969,-0.011719,-0.015625
616649.0,-0.457031,-5.042969,8.378906,0.003906,0.042969,0.011719,-0.066406,-0.013672,-0.019531
616663.0,-0.492188,-5.082031,8.375,-0.003906,0.019531,0.019531,-0.082031,-0.019531,-0.025391
616702.0,-0.457031,-5.15625,8.375,-0.011719,0.007812,0.003906,-0.111328,-0.015625,-0.025391
616718.0,-0.53125,-5.121094,8.375,-0.046875,0.089844,-0.027344,-0.138672,-0.027344,-0.035156
616742.0,-0.492188,-5.15625,8.417969,-0.054688,0.054688,0.066406,-0.160156,-0.03125,-0.046875
616758.0,-0.492188,-5.234375,8.378906,-0.0625,0.023438,0.035156,-0.189453,-0.033203,-0.058594
616781.0,-0.53125,-5.273438,8.378906,-0.117188,-0.007812,0.066406,-0.212891,-0.044922,-0.072266
616798.0,-0.492188,-5.273438,8.308594,-0.078125,0.007812,0.0,-0.226562,-0.064453,-0.09375
616821.0,-0.457031,-5.386719,8.308594,-0.074219,-0.042969,0.03125,-0.273438,-0.078125,-0.117188
616839.0,-0.300781,-5.3125,8.230469,0.027344,0.019531,0.007812,-0.310547,-0.076172,-0.126953
616853.0,-0.417969,-5.386719,8.308594,0.011719,0.027344,-0.007812,-0.324219,-0.091797,-0.125
616892.0,-0.1875,-5.503906,8.152344,0.101562,0.027344,-0.007812,-0.40625,-0.117188,-0.119141
616907.0,-0.1875,-5.503906,8.152344,0.125,0.066406,0.015625,-0.445312,-0.138672,-0.111328
616931.0,-0.148438,-5.65625,8.070312,0.070312,0.023438,0.019531,-0.474609,-0.162109,-0.113281
616949.0,-0.1875,-5.695312,8.070312,0.007812,0.023438,0.050781,-0.482422,-0.183594,-0.123047
616971.0,-0.035156,-5.695312,7.953125,0.089844,0.140625,0.011719,-0.511719,-0.212891,-0.152344
616987.0,-0.339844,-5.925781,8.109375,0.027344,0.304688,0.121094,-0.589844,-0.271484,-0.162109
617007.0,-0.265625,-6.0,8.113281,0.042969,0.082031,0.039062,-0.642578,-0.310547,-0.193359
617027.0,0.082031,-6.039062,7.804688,-0.105469,0.109375,0.078125,-0.705078,-0.355469,-0.224609
617047.0,0.082031,-6.117188,7.847656,-0.191406,0.101562,0.203125,-0.771484,-0.431641,-0.261719
617068.0,0.042969,-6.308594,7.847656,-0.128906,0.105469,0.257812,-0.845703,-0.515625,-0.304688
617087.0,-0.148438,-6.5,7.691406,-0.324219,-0.039062,0.335938,-0.894531,-0.632812,-0.376953
617107.0,-0.035156,-6.613281,7.570312,-0.585938,-0.066406,0.300781,-0.925781,-0.742188,-0.482422
617127.0,0.15625,-6.804688,7.503906,-0.484375,-0.046875,0.234375,-0.955078,-0.875,-0.59375
617151.0,0.234375,-7.226562,7.769531,-0.742188,-0.359375,0.757812,-0.974609,-1.025391,-0.669922
617169.0,0.195312,-7.570312,8.035156,-0.929688,-0.648438,1.105469,-0.886719,-1.740234,-0.980469
617197.0,-2.140625,-8.605469,8.878906,-3.953125,-1.605469,2.0,-0.224609,-3.171875,-1.308594
617217.0,-2.21875,-8.945312,8.378906,-3.886719,-1.742188,2.230469,0.248047,-3.810547,-0.390625
617232.0,-4.515625,-8.035156,7.382812,-9.28125,-0.96875,0.65625,0.449219,-3.441406,1.005859
617250.0,-7.464844,-7.6875,6.3125,-10.371094,-0.6875,-0.007812,0.458984,-2.935547,3.572266
617277.0,-0.339844,-7.917969,5.890625,-5.9375,-0.527344,-0.65625,0.400391,-3.304688,4.605469
617294.0,5.597656,-6.925781,5.277344,-2.863281,-0.585938,-0.210938,0.462891,-2.992188,4.523438
617310.0,7.507812,-6.152344,5.164062,5.996094,2.191406,-0.640625,0.480469,-2.355469,4.248047
617327.0,7.246094,-5.003906,6.847656,5.835938,2.65625,-0.066406,0.240234,-0.871094,2.492188
617340.0,6.898438,-5.273438,7.765625,5.152344,2.136719,2.410156,0.273438,-0.654297,1.851562
617379.0,2.761719,-5.3125,8.878906,1.410156,2.257812,2.699219,0.572266,-0.300781,0.583984
617420.0,-1.183594,-5.121094,8.265625,-2.378906,2.207031,1.78125,1.177734,0.119141,0.638672
617437.0,-1.871094,-4.8125,7.726562,-2.777344,2.328125,1.457031,1.224609,-0.136719,1.097656
617460.0,-1.910156,-5.808594,8.308594,-2.808594,1.222656,1.453125,1.263672,-0.396484,1.699219
617477.0,-2.292969,-6.191406,8.109375,-2.871094,0.914062,1.394531,1.302734,-0.763672,2.263672
617499.0,-3.328125,-6.765625,7.003906,-3.828125,-0.054688,-0.203125,1.230469,-1.412109,2.771484
617519.0,-4.476562,-7.914062,7.347656,-4.828125,-1.351562,-0.003906,1.214844,-1.791016,3.039062
617531.0,-5.207031,-8.835938,7.652344,-6.007812,-2.75,-0.046875,1.310547,-2.712891,3.773438
617547.0,-5.359375,-8.949219,5.546875,-6.269531,-2.566406,-1.15625,1.292969,-3.603516,4.642578
617559.0,-4.019531,-9.710938,5.085938,-4.222656,-3.511719,-2.578125,1.238281,-3.695312,5.101562
617586.0,3.488281,-10.515625,4.242188,1.386719,-4.390625,-3.402344,1.146484,-3.142578,5.15625
617610.0,5.636719,-9.753906,4.203125,5.660156,-3.996094,-3.796875,0.9375,-2.763672,3.890625
617629.0,5.710938,-9.527344,4.472656,5.726562,-3.835938,-3.574219,0.621094,-2.154297,2.330078
617656.0,1.460938,-8.722656,3.515625,2.285156,-3.902344,-3.554688,0.246094,-0.240234,0.621094
617686.0,-4.515625,-15.265625,4.394531,-2.453125,-6.757812,-4.375,-0.175781,1.554688,0.113281
617706.0,-6.738281,-14.351562,2.136719,-6.179688,-9.195312,-3.699219,0.398438,0.802734,-0.205078
617721.0,-5.359375,-17.152344,0.105469,-7.878906,-8.378906,-5.199219,0.646484,0.751953,-0.126953
617736.0,2.992188,-2.78125,9.601562,-0.761719,-2.097656,1.496094,1.134766,0.150391,-0.230469
617760.0,1.039062,-6.765625,8.308594,1.484375,-1.59375,-0.070312,0.845703,-0.228516,-0.068359
617776.0,0.234375,-4.238281,9.035156,2.195312,0.210938,-0.074219,0.675781,-0.046875,0.158203
617800.0,-1.375,-4.660156,8.835938,-0.929688,0.300781,0.347656,0.46875,-0.068359,0.125
617816.0,-0.839844,-4.964844,8.613281,-0.898438,0.402344,0.140625,0.142578,-0.044922,0.021484
617839.0,-0.800781,-4.929688,8.496094,-0.363281,-0.023438,-0.027344,0.109375,-0.021484,0.007812
617856.0,-0.800781,-4.964844,8.414062,-0.332031,-0.136719,-0.066406,0.115234,-0.025391,-0.009766
617879.0,-0.609375,-5.082031,8.492188,-0.101562,-0.121094,-0.042969,0.107422,-0.029297,-0.013672
617896.0,-0.570312,-4.929688,8.492188,-0.140625,-0.082031,-0.082031,0.0625,0.005859,0.023438
617910.0,-0.648438,-4.890625,8.457031,-0.285156,-0.089844,-0.050781,0.042969,0.015625,0.023438
617925.0,-0.761719,-4.964844,8.496094,-0.316406,-0.128906,-0.050781,0.046875,0.009766,0.011719
617948.0,-0.683594,-5.003906,8.414062,-0.238281,-0.128906,-0.128906,0.050781,0.011719,0.011719
617989.0,-0.722656,-4.890625,8.492188,-0.269531,-0.03125,-0.058594,0.068359,0.013672,0.015625
618005.0,-0.722656,-4.890625,8.492188,-0.300781,-0.070312,-0.019531,0.050781,0.001953,0.0
618029.0,-0.722656,-4.890625,8.492188,-0.261719,-0.039062,-0.058594,0.039062,0.001953,0.003906
618046.0,-0.683594,-4.929688,8.496094,-0.222656,-0.03125,-0.027344,0.027344,0.007812,0.007812
618066.0,-0.648438,-5.003906,8.53125,-0.140625,-0.113281,-0.019531,0.029297,0.015625,0.017578
618086.0,-0.722656,-5.003906,8.535156,-0.214844,-0.113281,-0.019531,0.029297,0.019531,0.023438
618100.0,-0.722656,-4.964844,8.535156,-0.238281,-0.152344,-0.019531,0.041016,0.009766,0.025391
618116.0,-0.683594,-4.929688,8.457031,-0.238281,-0.152344,-0.027344,0.0625,0.021484,0.027344
618137.0,-0.683594,-4.851562,8.492188,-0.183594,-0.015625,-0.066406,0.068359,0.021484,0.025391
618177.0,-0.761719,-4.851562,8.570312,-0.042969,0.085938,0.0625,0.044922,0.037109,0.027344
618219.0,-0.722656,-4.929688,8.574219,0.019531,-0.015625,0.046875,0.066406,0.058594,0.041016
618235.0,-0.722656,-4.929688,8.609375,-0.003906,-0.015625,0.046875,0.066406,0.060547,0.039062
618250.0,-0.761719,-4.929688,8.574219,0.003906,-0.03125,0.039062,0.072266,0.058594,0.041016
618266.0,-0.800781,-4.773438,8.496094,0.011719,-0.039062,0.039062,0.083984,0.050781,0.037109
618288.0,-0.878906,-4.699219,8.53125,-0.089844,0.167969,-0.019531,0.066406,0.03125,0.03125
618299.0,-0.839844,-4.738281,8.535156,-0.042969,0.128906,-0.019531,0.019531,0.009766,0.011719
618328.0,-0.800781,-4.8125,8.574219,0.003906,0.039062,0.015625,0.017578,0.005859,0.007812
618345.0,-0.800781,-4.773438,8.535156,-0.003906,0.03125,0.007812,0.025391,-0.019531,-0.011719
618368.0,-0.722656,-4.851562,8.613281,0.066406,-0.023438,0.054688,0.029297,-0.023438,-0.007812
618385.0,-0.722656,-4.929688,8.648438,0.027344,-0.0625,0.085938,0.039062,-0.007812,0.003906
618408.0,-0.761719,-4.8125,8.613281,0.027344,0.0,0.03125,0.048828,0.0,0.005859
618425.0,-0.761719,-4.699219,8.574219,0.027344,0.074219,-0.007812,0.042969,0.0,-0.001953
618446.0,-0.761719,-4.660156,8.570312,0.027344,0.097656,-0.007812,0.025391,-0.007812,-0.005859
618478.0,-0.722656,-4.738281,8.535156,0.058594,0.050781,-0.050781,0.0,-0.015625,-0.009766
618495.0,-0.722656,-4.699219,8.574219,0.050781,0.082031,-0.050781,-0.005859,-0.017578,-0.009766
618519.0,-0.722656,-4.738281,8.570312,0.042969,0.035156,-0.015625,-0.005859,-0.015625,-0.007812
618536.0,-0.761719,-4.773438,8.574219,0.035156,0.035156,-0.015625,-0.009766,-0.017578,-0.013672
618558.0,-0.761719,-4.738281,8.570312,-0.011719,0.035156,-0.007812,-0.005859,-0.015625,-0.011719
618574.0,-0.722656,-4.773438,8.574219,0.027344,0.035156,-0.042969,-0.005859,-0.017578,-0.009766
618589.0,-0.761719,-4.773438,8.574219,-0.011719,0.0,-0.007812,-0.001953,-0.017578,-0.009766
618605.0,-0.722656,-4.773438,8.609375,-0.019531,-0.007812,-0.007812,-0.001953,-0.019531,-0.013672
618627.0,-0.761719,-4.773438,8.574219,-0.027344,-0.007812,-0.007812,0.001953,-0.023438,-0.011719
618644.0,-0.761719,-4.738281,8.613281,0.003906,0.027344,0.03125,-0.003906,-0.03125,-0.019531
618667.0,-0.761719,-4.738281,8.570312,-0.035156,0.027344,-0.007812,-0.007812,-0.03125,-0.019531
618684.0,-0.761719,-4.738281,8.535156,-0.042969,-0.007812,-0.042969,-0.013672,-0.052734,-0.03125
618708.0,-0.722656,-4.773438,8.574219,-0.027344,-0.007812,-0.007812,-0.009766,-0.058594,-0.033203
618724.0,-0.683594,-4.773438,8.570312,-0.027344,0.0,0.03125,-0.017578,-0.064453,-0.035156
618747.0,-0.722656,-4.8125,8.613281,-0.042969,-0.039062,0.03125,-0.017578,-0.058594,-0.035156
618764.0,-0.722656,-4.8125,8.570312,-0.050781,0.0,-0.007812,-0.013672,-0.060547,-0.037109
618779.0,-0.722656,-4.8125,8.570312,-0.019531,0.007812,-0.007812,-0.007812,-0.068359,-0.044922
618804.0,-0.609375,-4.773438,8.570312,-0.042969,0.007812,-0.007812,-0.005859,-0.066406,-0.037109
618825.0,-0.683594,-4.8125,8.574219,-0.015625,-0.03125,-0.007812,-0.007812,-0.066406,-0.035156
618858.0,-0.609375,-4.773438,8.570312,0.0,0.007812,-0.007812,-0.007812,-0.078125,-0.035156
618874.0,-0.648438,-4.8125,8.574219,-0.054688,0.007812,-0.007812,-0.005859,-0.078125,-0.033203
618896.0,-0.648438,-4.738281,8.574219,-0.078125,0.050781,0.0,-0.009766,-0.083984,-0.035156
618938.0,-0.570312,-4.773438,8.574219,-0.03125,0.023438,0.0,-0.046875,-0.113281,-0.056641
618955.0,-0.683594,-4.773438,8.613281,-0.039062,0.097656,0.007812,-0.052734,-0.119141,-0.064453
618968.0,-0.609375,-4.890625,8.613281,0.015625,-0.046875,0.046875,-0.052734,-0.126953,-0.064453
618983.0,-0.457031,-4.851562,8.6875,0.042969,-0.007812,0.085938,-0.0625,-0.111328,-0.060547
619006.0,-0.417969,-4.738281,8.570312,0.042969,0.082031,0.015625,-0.060547,-0.101562,-0.054688
619017.0,-0.378906,-4.8125,8.652344,0.074219,0.015625,0.09375,-0.074219,-0.085938,-0.048828
619046.0,-0.417969,-4.929688,8.574219,0.003906,-0.085938,0.023438,-0.078125,-0.066406,-0.050781
619064.0,-0.339844,-4.964844,8.570312,0.15625,-0.070312,0.023438,-0.060547,-0.041016,-0.037109
619087.0,-0.300781,-4.964844,8.574219,0.097656,-0.097656,0.023438,-0.050781,-0.029297,-0.023438
619104.0,-0.378906,-4.929688,8.574219,0.011719,-0.054688,-0.011719,-0.025391,-0.029297,-0.017578
619126.0,-0.457031,-4.964844,8.535156,-0.074219,-0.074219,-0.011719,0.0,-0.033203,-0.019531
619158.0,-0.417969,-4.964844,8.570312,-0.050781,-0.074219,0.023438,-0.005859,-0.044922,-0.033203
619174.0,-0.417969,-4.964844,8.613281,-0.058594,-0.074219,0.054688,0.0,-0.039062,-0.03125
619198.0,-0.378906,-4.929688,8.574219,-0.019531,-0.023438,0.015625,-0.001953,-0.042969,-0.03125
619213.0,-0.417969,-4.929688,8.574219,-0.027344,-0.058594,0.054688,-0.003906,-0.052734,-0.041016
619238.0,-0.417969,-4.929688,8.609375,-0.082031,-0.015625,0.054688,-0.001953,-0.074219,-0.048828
619254.0,-0.53125,-4.964844,8.609375,-0.136719,-0.050781,0.054688,-0.007812,-0.115234,-0.068359
619276.0,-0.53125,-5.082031,8.691406,-0.242188,-0.152344,0.125,-0.023438,-0.181641,-0.095703
619307.0,-0.648438,-5.15625,8.6875,-0.445312,-0.226562,0.125,-0.009766,-0.289062,-0.146484
619323.0,-0.683594,-5.234375,8.796875,-0.558594,-0.304688,0.277344,0.015625,-0.533203,-0.277344
619346.0,-0.800781,-5.3125,9.21875,-0.824219,-0.382812,0.660156,-0.001953,-0.646484,-0.324219
619363.0,-1.488281,-5.539062,9.640625,-1.238281,-0.566406,0.890625,-0.177734,-1.333984,-0.626953
619386.0,-1.679688,-5.347656,9.566406,-2.289062,-0.363281,1.050781,-0.246094,-1.666016,-0.792969
619403.0,-2.21875,-5.925781,9.457031,-2.785156,-0.648438,1.273438,-0.103516,-2.226562,-1.039062
619415.0,-3.328125,-5.503906,9.496094,-4.632812,-0.511719,1.0625,0.111328,-2.410156,-0.753906
619442.0,-7.082031,-5.65625,8.070312,-10.574219,-0.742188,0.503906,0.384766,-3.441406,1.533203
619466.0,-1.644531,-6.269531,6.277344,-3.863281,-1.285156,-1.984375,0.5,-2.363281,3.607422
619485.0,-3.214844,-6.269531,6.160156,-5.378906,-1.238281,-2.074219,0.3125,-1.189453,5.101562
619503.0,-3.0625,-6.953125,6.925781,-5.761719,-2.0,-0.871094,0.136719,-1.982422,5.583984
619524.0,-1.835938,-7.035156,6.386719,-3.421875,-1.675781,-1.777344,-0.013672,-2.541016,5.814453
619543.0,2.074219,-7.152344,5.621094,0.191406,-1.582031,-2.472656,-0.158203,-2.486328,5.736328
619562.0,2.839844,-6.921875,6.121094,1.4375,-1.386719,-2.203125,-0.3125,-2.353516,5.21875
619593.0,3.414062,-6.726562,7.804688,2.445312,-0.738281,-1.320312,-0.359375,-2.068359,4.271484
619615.0,2.722656,-6.191406,8.652344,2.261719,-0.136719,0.84375,-0.304688,-1.945312,4.035156
619646.0,1.996094,-5.425781,8.335938,1.746094,0.699219,0.582031,-0.160156,-1.892578,3.382812
619665.0,1.917969,-5.464844,8.496094,1.714844,0.667969,0.746094,0.023438,-1.769531,2.822266
619692.0,-1.03125,-5.960938,8.878906,-0.632812,0.164062,1.265625,0.367188,-1.810547,2.517578
619712.0,-2.371094,-6.382812,8.613281,-1.75,-0.015625,0.921875,0.591797,-1.986328,2.714844
619732.0,-3.253906,-6.574219,7.152344,-3.460938,-0.53125,-0.144531,0.714844,-2.330078,3.017578
619750.0,-2.101562,-6.808594,6.195312,-3.308594,-0.660156,-0.777344,0.738281,-2.375,3.15625
619774.0,0.234375,-6.613281,5.199219,-0.601562,-0.871094,-2.691406,0.566406,-1.908203,3.355469
619792.0,2.300781,-7.070312,4.96875,1.238281,-1.125,-3.140625,0.345703,-1.462891,2.986328
619812.0,5.289062,-7.570312,3.363281,2.386719,-1.464844,-3.171875,0.072266,-0.775391,2.148438
619837.0,4.140625,-15.308594,4.550781,4.445312,-9.738281,-3.597656,-0.322266,-0.158203,0.996094
619879.0,-1.527344,-7.496094,10.328125,-1.113281,-1.847656,2.246094,-0.150391,0.537109,0.185547
619902.0,-3.289062,-5.234375,7.808594,-2.507812,1.25,2.667969,0.042969,-0.285156,-0.341797
619923.0,0.847656,-5.3125,8.335938,1.652344,-2.109375,-0.480469,0.501953,-0.023438,-0.101562
619955.0,0.042969,-5.3125,8.335938,0.441406,0.132812,0.113281,0.486328,0.029297,0.091797
619972.0,-0.339844,-5.617188,8.265625,0.324219,-0.058594,0.015625,0.414062,0.068359,0.152344
619995.0,-0.878906,-5.347656,8.457031,-0.433594,-0.035156,0.152344,0.310547,0.054688,0.128906
620012.0,-0.839844,-5.386719,8.417969,-0.425781,-0.023438,0.097656,0.251953,0.019531,0.078125
620026.0,-0.800781,-5.347656,8.375,-0.300781,-0.054688,0.003906,0.244141,0.007812,0.0625
620042.0,-0.722656,-5.3125,8.308594,-0.292969,-0.113281,0.027344,0.244141,-0.021484,0.046875
620066.0,-0.683594,-5.234375,8.339844,-0.214844,-0.046875,-0.042969,0.230469,-0.033203,0.037109
620082.0,-0.722656,-5.15625,8.375,-0.261719,0.007812,-0.058594,0.205078,-0.03125,0.029297
620105.0,-0.609375,-5.195312,8.414062,-0.148438,-0.070312,0.003906,0.158203,-0.03125,0.023438
620122.0,-0.570312,-5.082031,8.378906,-0.109375,-0.046875,-0.003906,0.136719,-0.011719,0.033203
620145.0,-0.722656,-5.082031,8.378906,-0.253906,0.003906,-0.058594,0.09375,-0.003906,0.03125
620162.0,-0.722656,-5.121094,8.417969,-0.300781,-0.042969,-0.058594,0.109375,-0.023438,0.021484
620176.0,-0.722656,-5.121094,8.378906,-0.300781,0.097656,0.003906,0.119141,-0.019531,0.021484
620191.0,-0.722656,-5.121094,8.417969,-0.261719,-0.027344,-0.035156,0.115234,-0.041016,0.007812
620216.0,-0.648438,-5.121094,8.414062,-0.195312,-0.089844,-0.050781,0.111328,-0.046875,0.009766
620232.0,-0.722656,-4.964844,8.417969,-0.238281,-0.097656,-0.019531,0.111328,-0.046875,0.011719
620255.0,-0.609375,-5.003906,8.492188,-0.171875,-0.003906,0.011719,0.080078,-0.052734,0.005859
620272.0,-0.648438,-4.964844,8.574219,-0.171875,0.027344,0.011719,0.058594,-0.013672,0.021484
620293.0,-0.648438,-5.003906,8.53125,-0.203125,-0.019531,0.042969,0.042969,0.003906,0.025391
620325.0,-0.722656,-4.542969,8.417969,-0.269531,0.441406,-0.074219,0.011719,0.039062,0.033203
620341.0,-0.570312,-5.003906,8.457031,-0.070312,0.332031,-0.035156,-0.136719,0.054688,0.023438
620365.0,-0.761719,-5.195312,8.339844,-0.277344,-0.171875,-0.128906,-0.138672,0.070312,0.03125
620380.0,-1.222656,-5.195312,8.269531,-0.46875,-0.28125,-0.15625,0.009766,0.044922,0.001953
620404.0,-0.570312,-4.8125,8.457031,-0.070312,0.21875,0.003906,0.033203,0.011719,-0.015625
620421.0,-0.683594,-4.738281,8.453125,-0.261719,0.292969,0.035156,0.0,-0.035156,-0.021484
620445.0,-0.683594,-5.042969,8.492188,-0.191406,-0.003906,0.042969,-0.041016,-0.074219,-0.052734
620461.0,-0.648438,-5.082031,8.492188,-0.164062,0.035156,0.042969,-0.025391,-0.066406,-0.048828
620485.0,-0.609375,-5.042969,8.453125,-0.148438,0.003906,0.003906,-0.005859,-0.058594,-0.041016
620501.0,-0.609375,-5.082031,8.453125,-0.15625,0.042969,0.082031,-0.013672,-0.050781,-0.037109
620525.0,-0.648438,-4.964844,8.453125,-0.210938,0.097656,0.011719,-0.019531,-0.039062,-0.03125
620542.0,-0.570312,-5.121094,8.417969,-0.179688,-0.058594,-0.027344,-0.005859,-0.027344,-0.03125
620555.0,-0.570312,-5.082031,8.417969,-0.0625,-0.019531,0.011719,0.0,-0.023438,-0.025391
620593.0,-0.648438,-5.042969,8.414062,-0.226562,0.019531,-0.019531,0.007812,-0.013672,-0.009766
620633.0,-0.492188,-5.082031,8.453125,-0.070312,-0.019531,0.019531,0.013672,0.003906,0.009766
620644.0,-0.609375,-5.121094,8.453125,-0.179688,-0.058594,0.019531,0.023438,0.013672,0.017578
620674.0,-0.722656,-4.964844,8.457031,-0.285156,0.089844,0.019531,0.023438,0.003906,0.013672
620691.0,-0.722656,-4.964844,8.417969,-0.285156,0.050781,-0.019531,0.017578,-0.005859,0.001953
620714.0,-0.683594,-5.003906,8.492188,-0.246094,0.042969,0.050781,0.003906,-0.011719,-0.005859
620731.0,-0.648438,-5.042969,8.53125,-0.210938,0.011719,0.050781,-0.001953,-0.007812,-0.005859
620746.0,-0.683594,-5.042969,8.492188,-0.058594,0.027344,0.035156,-0.003906,-0.007812,-0.009766
620783.0,-0.609375,-4.964844,8.453125,0.015625,0.066406,-0.003906,-0.011719,0.0,-0.017578
620823.0,-0.570312,-5.082031,8.457031,0.046875,-0.050781,-0.003906,-0.007812,0.009766,-0.005859
620840.0,-0.53125,-5.082031,8.414062,0.09375,-0.089844,-0.035156,0.027344,0.007812,0.001953
620864.0,-0.609375,-5.121094,8.492188,0.015625,-0.097656,0.035156,0.041016,0.017578,0.013672
620881.0,-0.648438,-4.929688,8.378906,0.015625,-0.011719,0.035156,0.041016,0.021484,0.013672
620901.0,-0.609375,-4.964844,8.414062,-0.023438,-0.019531,-0.050781,0.023438,0.021484,0.013672
620920.0,-0.648438,-5.003906,8.492188,-0.015625,0.050781,0.035156,0.007812,0.029297,0.015625
620940.0,-0.609375,-4.890625,8.417969,0.023438,0.050781,-0.003906,0.0,0.037109,0.017578
620960.0,-0.648438,-5.003906,8.453125,-0.007812,0.078125,0.027344,-0.005859,0.039062,0.017578
620981.0,-0.722656,-5.003906,8.457031,-0.035156,0.003906,-0.003906,-0.001953,0.033203,0.013672
621013.0,-0.722656,-4.890625,8.453125,-0.058594,0.117188,-0.003906,-0.013672,0.019531,0.003906
621030.0,-0.683594,-5.082031,8.492188,-0.058594,0.003906,-0.035156,-0.019531,0.013672,-0.001953
621053.0,-0.683594,-5.082031,8.492188,-0.011719,-0.074219,0.042969,-0.009766,0.007812,-0.001953
621070.0,-0.609375,-5.042969,8.453125,0.023438,-0.074219,0.003906,0.003906,0.013672,0.005859
621085.0,-0.683594,-4.964844,8.453125,-0.050781,0.117188,-0.035156,-0.001953,0.011719,0.003906
621100.0,-0.648438,-5.003906,8.453125,-0.042969,0.078125,-0.027344,-0.019531,0.007812,0.0
621123.0,-0.683594,-5.003906,8.453125,0.003906,0.011719,0.011719,-0.021484,0.017578,0.0
621133.0,-0.648438,-5.042969,8.453125,0.039062,-0.027344,0.011719,-0.023438,0.023438,0.003906
621150.0,-0.683594,-5.082031,8.453125,0.003906,-0.058594,0.019531,-0.019531,0.029297,0.007812
621170.0,-0.683594,-5.082031,8.453125,-0.027344,-0.019531,0.019531,-0.015625,0.025391,0.011719
621195.0,-0.722656,-4.964844,8.457031,-0.019531,0.066406,0.019531,-0.029297,0.019531,0.003906
621211.0,-0.648438,-5.121094,8.453125,0.019531,-0.089844,0.027344,-0.027344,0.025391,0.007812
621242.0,-0.683594,-5.082031,8.414062,0.027344,-0.035156,-0.011719,-0.011719,0.029297,0.009766
621272.0,-0.722656,-5.121094,8.457031,-0.003906,-0.082031,0.027344,-0.001953,0.021484,0.013672
621313.0,-0.761719,-4.964844,8.417969,-0.035156,0.082031,-0.011719,0.009766,0.013672,0.007812
621329.0,-0.722656,-5.082031,8.457031,-0.035156,0.042969,-0.011719,0.0,0.009766,0.005859
621353.0,-0.722656,-5.003906,8.457031,0.003906,0.042969,0.027344,0.003906,0.007812,0.005859
621369.0,-0.722656,-5.042969,8.457031,0.003906,0.003906,0.027344,0.003906,0.009766,0.003906
621392.0,-0.722656,-5.082031,8.457031,0.011719,-0.035156,0.027344,0.003906,0.005859,0.005859
621423.0,-0.722656,-4.964844,8.417969,0.011719,0.082031,-0.011719,0.005859,0.005859,0.005859
