Time,ax,ay,az,lax,lay,laz,gx,gy,gz
53436.0,-10.429688,0.238281,-0.769531,-0.636719,0.324219,-0.902344,0.318359,-0.044922,-0.042969
53452.0,-10.125,0.394531,-0.730469,-0.492188,0.410156,-0.871094,0.128906,-0.080078,-0.076172
53475.0,-9.667969,0.394531,-0.617188,0.121094,0.519531,-0.789062,-0.044922,-0.121094,-0.087891
53516.0,-9.363281,-0.257812,-0.425781,0.425781,-0.09375,-0.652344,-0.246094,-0.169922,-0.101562
53533.0,-9.480469,-0.488281,-0.386719,0.386719,-0.230469,-0.667969,-0.302734,-0.185547,-0.117188
53562.0,-9.664062,-1.023438,-0.273438,0.160156,-0.738281,-0.597656,-0.332031,-0.167969,-0.134766
53585.0,-9.667969,-1.140625,-0.003906,0.121094,-0.875,-0.332031,-0.322266,-0.146484,-0.140625
53595.0,-9.703125,-1.0625,0.109375,0.082031,-0.78125,-0.234375,-0.289062,-0.085938,-0.152344
53627.0,-9.9375,-0.832031,0.226562,-0.148438,-0.511719,-0.125,-0.310547,-0.035156,-0.126953
53642.0,-10.242188,-0.871094,0.265625,-0.300781,-0.488281,-0.085938,-0.361328,-0.017578,-0.058594
53666.0,-10.394531,-0.984375,0.496094,-0.605469,-0.632812,0.144531,-0.414062,0.005859,0.076172
53683.0,-10.28125,-0.757812,0.648438,-0.578125,-0.527344,0.265625,-0.443359,0.072266,0.208984
53705.0,-9.78125,-0.832031,0.800781,0.003906,-0.550781,0.488281,-0.453125,0.087891,0.261719
53736.0,-9.246094,-1.0625,0.878906,0.550781,-0.882812,0.613281,-0.345703,0.140625,0.412109
53753.0,-9.175781,-0.949219,0.648438,0.589844,-0.882812,0.503906,-0.074219,0.146484,0.484375
53777.0,-9.09375,-0.71875,0.417969,0.695312,-0.726562,0.207031,0.027344,0.15625,0.533203
53792.0,-9.054688,-0.601562,0.265625,0.695312,-0.742188,0.105469,0.101562,0.173828,0.542969
53815.0,-8.980469,-0.335938,0.109375,0.808594,-0.539062,-0.03125,0.121094,0.1875,0.539062
53826.0,-8.863281,-0.21875,0.035156,0.925781,-0.484375,-0.082031,0.099609,0.226562,0.546875
53855.0,-7.988281,0.046875,0.074219,1.804688,-0.390625,0.027344,0.037109,0.251953,0.621094
53887.0,-5.230469,0.660156,-0.15625,4.539062,-0.011719,-0.109375,-0.082031,0.291016,0.865234
53913.0,-3.160156,1.351562,0.378906,5.261719,0.164062,0.035156,-0.410156,0.390625,1.261719
53937.0,-2.007812,2.226562,1.144531,7.6875,0.980469,1.355469,-0.419922,0.355469,1.408203
53966.0,-3.003906,2.386719,-0.234375,6.613281,0.753906,0.023438,-0.328125,0.214844,1.34375
53983.0,-5.1875,1.773438,-1.152344,5.738281,0.351562,-0.480469,-0.455078,-0.392578,1.105469
54007.0,-12.0,0.203125,-2.570312,-2.496094,-1.835938,-2.492188,-0.296875,-0.890625,0.724609
54023.0,-16.296875,0.085938,-2.761719,-5.117188,-2.246094,-2.824219,-0.207031,-0.882812,0.150391
54046.0,-16.449219,3.265625,-1.34375,-6.972656,1.148438,-1.5625,-0.328125,-0.546875,-0.050781
54063.0,-16.40625,4.722656,0.074219,-6.664062,2.023438,-0.675781,-0.304688,0.771484,-0.523438
54087.0,-19.859375,7.328125,0.1875,-10.34375,5.40625,0.164062,-0.21875,0.644531,-0.638672
54104.0,-22.425781,9.472656,0.339844,-11.5625,6.800781,0.363281,-0.742188,0.025391,-0.509766
54118.0,-23.496094,9.585938,0.300781,-14.722656,7.285156,0.300781,-1.099609,-0.203125,-0.472656
54133.0,-24.953125,7.441406,0.457031,-15.167969,6.398438,0.261719,-1.447266,-0.220703,-0.197266
54156.0,-26.105469,6.675781,1.222656,-16.515625,4.964844,1.074219,-1.488281,-0.091797,0.066406
54167.0,-26.75,6.253906,0.953125,-17.175781,4.488281,0.796875,-1.398438,0.257812,0.525391
54197.0,-25.378906,3.6875,0.378906,-15.78125,1.71875,0.238281,-1.056641,0.3125,0.771484
54214.0,-22.5,3.265625,1.070312,-14.476562,1.488281,0.523438,-0.75,0.335938,0.664062
54235.0,-15.722656,1.273438,0.914062,-6.121094,-0.960938,0.84375,-0.525391,0.310547,0.599609
54277.0,-2.65625,0.890625,1.296875,6.972656,-1.53125,1.265625,0.601562,-0.068359,0.314453
54294.0,1.59375,0.164062,1.183594,9.128906,-1.992188,1.359375,0.673828,-0.0625,0.498047
54317.0,4.8125,-0.871094,0.417969,14.445312,-3.503906,0.425781,0.726562,-0.072266,0.783203
54334.0,5.304688,-0.757812,-0.117188,15.308594,-3.972656,0.097656,0.791016,-0.064453,0.912109
54348.0,4.886719,-0.257812,-0.234375,13.617188,-2.6875,0.128906,0.507812,-0.0625,0.808594
54364.0,2.363281,0.085938,0.074219,12.726562,-2.605469,0.128906,-0.017578,-0.070312,0.429688
54387.0,-0.128906,-1.210938,-0.65625,9.402344,-4.285156,-0.625,-0.119141,-0.048828,0.263672
54397.0,-0.820312,-1.40625,-0.808594,8.710938,-4.476562,-0.777344,-0.089844,0.056641,0.027344
54427.0,-1.394531,-0.871094,-0.65625,8.136719,-3.925781,-0.601562,0.150391,0.056641,-0.107422
54444.0,-1.050781,0.125,-0.539062,8.289062,-3.359375,-0.476562,0.458984,-0.164062,-0.439453
54467.0,-0.742188,0.96875,-0.308594,8.8125,-1.921875,-0.261719,0.384766,-0.238281,-0.527344
54484.0,-0.09375,0.855469,-0.234375,9.132812,-1.867188,-0.15625,0.121094,-0.179688,-0.443359
54508.0,0.714844,-0.066406,-0.691406,10.289062,-2.777344,-0.691406,-0.246094,-0.136719,-0.363281
54524.0,1.019531,-0.449219,-0.5,10.558594,-2.929688,-0.6875,-0.423828,-0.101562,-0.289062
54538.0,0.828125,-0.566406,-0.539062,10.246094,-3.210938,-0.726562,-0.431641,-0.111328,-0.265625
54554.0,0.253906,-0.335938,-1.0,9.976562,-3.074219,-0.980469,-0.419922,-0.150391,-0.201172
54576.0,-0.09375,0.164062,-0.804688,9.445312,-2.351562,-0.980469,-0.421875,-0.191406,-0.1875
54618.0,-1.695312,0.238281,-0.960938,7.792969,-2.175781,-1.296875,0.189453,-0.523438,-0.3125
54635.0,-4.421875,0.738281,-1.496094,6.75,-1.90625,-1.605469,0.771484,-0.880859,-0.447266
54657.0,-14.414062,3.152344,-1.34375,-4.957031,0.941406,-1.929688,0.986328,-1.144531,-0.667969
54674.0,-23.148438,7.136719,-0.195312,-9.707031,3.003906,-1.734375,-0.410156,-1.042969,-1.359375
54698.0,-28.980469,5.488281,4.363281,-19.484375,3.808594,3.402344,-2.580078,-0.005859,-1.449219
54715.0,-30.816406,-0.640625,6.816406,-20.617188,1.03125,4.6875,-2.236328,1.039062,-1.582031
54734.0,-32.886719,1.199219,4.746094,-23.03125,-3.09375,5.425781,1.257812,0.638672,-0.568359
54755.0,-32.539062,11.769531,2.90625,-23.265625,5.007812,2.953125,2.896484,-0.742188,0.119141
54769.0,-31.847656,15.714844,2.257812,-22.078125,15.671875,0.746094,2.373047,-1.083984,0.291016
54807.0,-29.589844,2.921875,1.335938,-20.003906,1.632812,0.304688,-1.189453,-0.339844,0.257812
54824.0,-27.476562,-0.105469,1.566406,-19.257812,-0.113281,0.34375,-2.287109,0.513672,0.09375
54848.0,-19.785156,-1.445312,2.449219,-10.117188,-2.71875,1.488281,-1.554688,0.667969,0.193359
54865.0,-14.035156,-1.367188,2.21875,-7.105469,-2.6875,1.542969,-0.257812,0.699219,0.113281
54879.0,-11.390625,-1.367188,1.835938,0.832031,-2.949219,0.472656,0.226562,0.568359,0.144531
54905.0,-1.316406,-3.203125,-0.082031,5.917969,-4.007812,-0.644531,1.310547,-0.412109,0.564453
54920.0,0.445312,-2.820312,-0.042969,11.636719,-3.527344,-0.847656,1.640625,-0.708984,0.599609
54957.0,3.207031,2.0,-0.425781,12.953125,0.296875,-1.527344,0.529297,-1.146484,0.234375
54969.0,2.625,0.851562,0.226562,12.378906,-0.851562,-0.992188,-0.712891,-1.041016,0.050781
54998.0,0.484375,-2.480469,0.800781,10.210938,-4.113281,-0.738281,-0.867188,-0.755859,-0.283203
55015.0,-0.589844,-2.824219,1.414062,9.441406,-4.410156,-0.203125,0.304688,-0.542969,-0.314453
55039.0,-0.246094,-1.410156,0.300781,9.472656,-2.945312,-1.441406,1.658203,-0.458984,-0.259766
55056.0,0.867188,-0.867188,-0.617188,9.957031,-2.800781,-1.722656,2.175781,-0.333984,-0.216797
55084.0,1.289062,2.269531,-1.726562,11.019531,-0.011719,-3.515625,1.179688,-0.275391,-0.113281
55115.0,0.75,1.390625,-1.34375,10.929688,1.003906,-3.410156,-0.111328,-0.171875,-0.28125
55135.0,1.019531,0.164062,-1.042969,10.515625,-0.761719,-3.066406,-0.445312,-0.013672,-0.339844
55150.0,1.136719,-0.21875,-0.769531,10.707031,-1.871094,-2.421875,-0.388672,0.064453,-0.345703
55165.0,0.789062,-0.679688,-0.425781,10.613281,-2.015625,-2.296875,-0.095703,0.154297,-0.244141
55188.0,0.101562,-0.5625,-0.15625,9.71875,-1.917969,-1.890625,0.072266,0.214844,-0.169922
55205.0,-0.511719,-0.410156,-0.082031,9.441406,-1.878906,-1.820312,0.492188,0.291016,0.021484
55229.0,-1.394531,-0.066406,-0.195312,8.175781,-1.449219,-1.796875,0.642578,0.1875,0.095703
55246.0,-2.082031,0.394531,-0.5,7.96875,-1.234375,-1.925781,0.791016,-0.017578,0.076172
55269.0,-6.949219,0.699219,-1.613281,2.542969,-0.738281,-3.222656,0.914062,-1.021484,-0.097656
55285.0,-15.183594,2.769531,0.6875,-1.089844,-0.339844,-2.558594,0.683594,-1.486328,-0.966797
55309.0,-25.871094,9.089844,5.089844,-16.457031,7.996094,3.121094,-1.871094,0.041016,-1.583984
55325.0,-28.625,3.226562,7.695312,-17.601562,6.78125,4.203125,-4.578125,0.837891,-1.558594
55340.0,-29.28125,-2.75,9.878906,-21.4375,-8.363281,9.925781,-3.677734,1.066406,-1.808594
55355.0,-32.421875,-8.339844,12.675781,-22.332031,-10.574219,11.164062,1.113281,0.537109,-0.919922
55378.0,-31.777344,6.636719,8.230469,-22.28125,6.519531,6.535156,3.003906,0.0625,-0.388672
55398.0,-32.191406,9.511719,6.085938,-22.707031,9.253906,4.265625,2.675781,-0.898438,0.314453
55418.0,-29.746094,6.214844,3.636719,-20.273438,5.839844,1.652344,1.605469,-1.017578,0.316406
55459.0,-23.765625,0.96875,2.832031,-14.257812,0.6875,0.730469,-1.085938,0.191406,-0.107422
55476.0,-20.351562,0.203125,3.480469,-12.511719,0.648438,0.851562,-1.519531,0.205078,0.007812
55500.0,-12.386719,-2.480469,4.859375,-2.792969,-2.667969,2.796875,-1.083984,0.060547,0.1875
55516.0,-5.074219,-3.207031,3.480469,0.859375,-3.097656,2.140625,0.005859,-0.150391,0.412109
55536.0,1.976562,-1.714844,0.953125,9.847656,-2.792969,-0.574219,0.275391,0.019531,0.814453
55556.0,4.082031,-0.105469,0.300781,12.90625,-1.308594,-1.605469,0.005859,0.179688,1.050781
55572.0,4.695312,0.164062,0.226562,14.644531,-0.515625,-2.234375,-0.001953,0.115234,0.998047
55596.0,2.546875,-0.179688,-1.382812,13.496094,-1.03125,-3.207031,0.179688,-0.228516,0.455078
55610.0,1.289062,0.046875,-1.652344,9.808594,-0.214844,-3.746094,0.160156,-0.169922,0.373047
55625.0,-1.394531,1.582031,-1.6875,8.96875,0.128906,-3.90625,-0.072266,0.097656,0.339844
55650.0,-2.234375,1.351562,-0.847656,7.441406,0.320312,-2.957031,-0.369141,0.292969,0.248047
55666.0,-1.664062,0.011719,-0.386719,7.597656,-0.269531,-2.695312,-0.421875,0.341797,0.048828
55689.0,-0.589844,-1.5625,-0.082031,9.105469,-2.601562,-2.074219,-0.048828,0.339844,-0.027344
55706.0,0.136719,-1.59375,-0.042969,9.609375,-2.714844,-2.035156,0.232422,0.361328,0.072266
55730.0,0.710938,-1.0625,-0.082031,10.414062,-2.140625,-1.917969,0.136719,0.355469,0.160156
55747.0,0.597656,-0.761719,0.074219,10.414062,-1.925781,-1.808594,0.039062,0.376953,0.142578
55761.0,0.328125,-0.644531,-0.003906,9.796875,-1.691406,-1.808594,0.001953,0.390625,0.113281
55777.0,-0.285156,-0.644531,-0.003906,9.519531,-1.734375,-1.761719,-0.087891,0.378906,0.076172
55800.0,0.023438,-0.910156,0.265625,9.695312,-2.058594,-1.304688,-0.183594,0.351562,0.091797
55817.0,0.136719,-1.101562,0.378906,9.808594,-2.140625,-1.273438,-0.191406,0.351562,0.089844
55838.0,-0.207031,-1.0625,0.300781,9.425781,-2.226562,-1.128906,-0.119141,0.361328,0.085938
55879.0,-1.207031,-0.601562,0.109375,8.382812,-1.820312,-1.148438,0.515625,0.388672,0.195312
55897.0,-2.394531,0.046875,-0.347656,7.945312,-1.539062,-1.492188,1.003906,0.158203,0.037109
55919.0,-9.625,-0.066406,-1.496094,-0.105469,-1.308594,-2.667969,1.636719,-0.587891,-0.537109
55950.0,-26.671875,5.757812,0.6875,-17.183594,4.8125,-0.664062,1.222656,-0.839844,-1.521484
55967.0,-30.890625,6.292969,6.585938,-18.761719,5.984375,2.320312,-3.777344,0.148438,-1.001953
55989.0,-34.566406,-7.726562,9.226562,-25.066406,-8.03125,7.875,-4.798828,0.46875,-1.365234
56007.0,-36.828125,-9.183594,10.722656,-26.46875,-11.601562,9.328125,2.025391,0.894531,-0.097656
56030.0,-36.449219,11.042969,7.8125,-26.898438,10.816406,6.695312,4.728516,-0.644531,0.28125
56056.0,-28.941406,6.140625,3.214844,-24.078125,9.089844,4.757812,0.761719,-1.355469,0.503906
56077.0,-24.035156,-1.101562,2.101562,-12.257812,-0.414062,-0.824219,-0.96875,0.544922,-0.431641
56101.0,-22.84375,-2.171875,2.066406,-13.246094,-2.570312,0.628906,-1.009766,0.625,-0.521484
56117.0,-17.976562,1.273438,1.875,-10.617188,-0.941406,0.636719,-0.515625,0.363281,-0.134766
56141.0,-12.621094,1.542969,1.757812,0.59375,-0.363281,0.230469,-0.121094,-0.050781,0.095703
56157.0,-2.503906,-1.140625,1.375,4.09375,-1.484375,-0.128906,-0.074219,0.144531,0.113281
56181.0,3.546875,0.046875,-0.308594,13.304688,-0.328125,-1.613281,-0.207031,0.322266,0.082031
56197.0,4.773438,-0.449219,-1.84375,14.164062,-0.480469,-2.617188,-0.146484,0.087891,0.392578
56221.0,0.980469,0.394531,-1.269531,10.777344,-0.082031,-2.535156,-0.027344,-0.0625,0.150391
56237.0,-2.472656,0.355469,-1.113281,8.792969,0.335938,-2.535156,-0.419922,-0.066406,-0.111328
56261.0,-3.003906,-1.445312,0.226562,6.816406,-1.890625,-1.054688,-0.677734,0.146484,0.148438
56277.0,-2.8125,-1.40625,1.71875,6.855469,-1.90625,-0.3125,-0.095703,0.435547,0.404297
56301.0,-0.550781,-0.71875,1.566406,9.292969,-1.304688,0.441406,0.941406,0.529297,0.474609
56317.0,1.09375,0.507812,0.074219,10.210938,-0.820312,-0.230469,1.580078,0.519531,0.261719
56341.0,1.289062,2.6875,-1.6875,11.132812,1.949219,-2.578125,1.183594,0.441406,0.027344
56357.0,1.019531,2.960938,-1.652344,11.015625,2.285156,-2.648438,0.048828,0.171875,-0.138672
56372.0,1.019531,2.539062,-1.382812,10.933594,0.976562,-1.964844,-0.505859,0.039062,-0.197266
56388.0,1.054688,-0.375,-1.039062,10.925781,-0.027344,-1.898438,-1.193359,-0.089844,-0.291016
56411.0,0.40625,-2.859375,-0.003906,10.21875,-3.441406,-0.863281,-0.978516,-0.039062,-0.230469
56427.0,0.214844,-3.363281,-0.042969,10.125,-3.839844,-0.824219,-0.197266,0.066406,-0.119141
56451.0,-0.742188,-1.789062,0.074219,9.023438,-2.3125,-0.761719,0.427734,0.111328,-0.050781
56468.0,-1.128906,-0.910156,-0.003906,8.816406,-1.847656,-0.824219,0.572266,0.123047,-0.095703
56491.0,-1.664062,0.394531,0.1875,8.046875,-0.097656,-0.585938,0.527344,0.050781,-0.111328
56509.0,-1.667969,0.660156,-0.042969,7.996094,0.136719,-0.730469,0.228516,-0.126953,-0.091797
56523.0,-1.507812,0.585938,-0.117188,8.0,-0.03125,-1.0625,0.171875,-0.236328,-0.103516
56561.0,-17.027344,-1.484375,0.761719,-7.4375,-1.78125,-0.269531,0.699219,-0.955078,-0.703125
56578.0,-26.222656,-1.523438,2.640625,-12.9375,-1.488281,0.210938,0.105469,-0.699219,-1.1875
56600.0,-29.285156,-7.613281,6.316406,-19.773438,-7.550781,5.035156,-0.636719,-0.482422,-0.673828
56642.0,-38.515625,3.34375,8.195312,-28.976562,3.34375,7.203125,5.707031,0.666016,0.402344
56658.0,-32.265625,13.914062,-2.761719,-25.902344,9.460938,1.886719,4.302734,-0.013672,0.347656
56678.0,-31.238281,11.117188,-4.484375,-22.285156,15.152344,-6.496094,-0.314453,0.179688,-0.09375
56698.0,-28.28125,1.734375,-2.53125,-20.644531,5.324219,-4.394531,-2.476562,0.494141,-0.386719
56721.0,-27.976562,-0.257812,3.0625,-18.324219,-0.3125,2.289062,-2.289062,0.615234,-0.308594
56738.0,-23.6875,-1.40625,3.0625,-16.546875,-1.117188,2.394531,-0.994141,0.054688,0.097656
56753.0,-21.007812,-1.214844,2.714844,-8.605469,-0.234375,1.757812,-0.660156,0.007812,0.296875
56778.0,-8.476562,1.847656,0.6875,-2.171875,1.3125,0.152344,-1.302734,0.113281,0.490234
56792.0,-5.640625,1.925781,0.761719,6.871094,1.234375,0.550781,-1.716797,0.181641,0.474609
56808.0,1.324219,-1.675781,1.492188,9.300781,-0.222656,0.789062,-1.761719,0.041016,0.445312
56831.0,5.460938,-4.394531,-0.464844,15.304688,-4.699219,-1.175781,-0.964844,-0.042969,0.652344
56848.0,4.078125,-2.863281,0.035156,15.207031,-4.3125,-0.960938,0.138672,-0.167969,0.632812
56872.0,-1.855469,0.011719,-0.539062,8.019531,-0.519531,-1.320312,0.322266,-0.273438,0.310547
56888.0,-3.65625,-0.949219,-0.273438,6.441406,-0.707031,-1.304688,-0.105469,-0.257812,0.271484
56904.0,-2.816406,-1.5625,0.074219,8.242188,-2.515625,-0.585938,-0.195312,-0.109375,0.277344
56928.0,-0.167969,-2.558594,0.417969,9.707031,-3.175781,-0.339844,0.705078,0.359375,0.103516
56948.0,-0.246094,-0.867188,0.339844,9.5625,-2.171875,-0.308594,1.099609,0.363281,0.158203
56968.0,0.675781,0.125,0.265625,10.058594,-0.984375,-0.371094,1.03125,0.199219,0.130859
56983.0,1.171875,0.429688,-0.003906,11.246094,-0.097656,-1.003906,0.951172,0.148438,0.050781
56998.0,1.359375,1.007812,-0.769531,11.316406,0.046875,-1.210938,0.693359,0.105469,-0.074219
57022.0,0.0625,0.738281,-1.0,9.921875,-0.019531,-1.5625,0.408203,0.042969,-0.058594
57039.0,-0.703125,0.203125,-1.269531,9.453125,-0.355469,-1.59375,0.304688,-0.017578,0.03125
57062.0,-1.242188,0.164062,-1.152344,8.585938,-0.601562,-1.699219,0.449219,-0.033203,0.109375
57102.0,-0.894531,1.390625,-0.195312,8.878906,0.578125,-0.757812,0.273438,-0.136719,0.099609
57119.0,-0.359375,1.082031,-0.5,9.128906,0.414062,-0.84375,0.183594,-0.1875,0.115234
57134.0,-0.207031,1.078125,-0.539062,9.625,0.355469,-1.1875,0.164062,-0.21875,0.154297
57159.0,-0.820312,1.617188,-1.113281,9.242188,0.667969,-1.648438,0.152344,-0.394531,0.103516
57174.0,-1.472656,1.621094,-1.191406,6.988281,0.574219,-1.996094,0.195312,-0.529297,-0.021484
57212.0,-23.769531,1.582031,-0.769531,-14.203125,0.863281,-1.863281,-0.011719,-1.300781,-0.691406
57229.0,-27.371094,4.261719,1.835938,-16.296875,2.496094,-0.714844,-2.695312,-0.267578,-0.474609
57252.0,-32.578125,-3.589844,5.703125,-23.046875,-3.925781,4.484375,-3.421875,0.121094,-0.474609
57279.0,-29.546875,-3.207031,6.890625,-21.765625,-5.339844,6.296875,0.203125,1.195312,0.091797
57299.0,-24.800781,2.0,7.160156,-16.792969,1.316406,6.851562,2.982422,-0.144531,0.136719
57324.0,-17.066406,1.964844,-3.296875,-7.476562,1.769531,-4.132812,2.484375,-0.166016,-0.419922
57349.0,-17.214844,7.746094,-0.117188,-8.074219,7.628906,-2.265625,-0.373047,-0.037109,-0.390625
57369.0,-15.492188,0.203125,1.644531,-5.605469,2.628906,-0.082031,-1.578125,0.068359,-0.472656
57389.0,-14.574219,-2.328125,2.140625,-5.773438,-1.375,1.351562,-1.199219,0.089844,-0.056641
57403.0,-13.539062,-2.519531,1.683594,-2.921875,-1.726562,0.601562,-0.785156,0.207031,0.109375
57419.0,-11.050781,0.125,1.183594,-2.179688,-0.863281,0.632812,-0.400391,0.371094,0.333984
57443.0,-8.210938,1.199219,0.953125,1.488281,1.152344,0.3125,-0.431641,0.392578,0.5
57459.0,-6.757812,0.96875,1.222656,2.300781,0.980469,0.542969,-0.447266,0.244141,0.675781
57482.0,-4.496094,0.660156,0.53125,5.238281,0.355469,-0.007812,-0.580078,0.109375,0.761719
57499.0,-3.578125,0.355469,0.417969,5.742188,0.253906,-0.121094,-0.705078,-0.035156,0.816406
57521.0,-2.578125,-0.296875,0.339844,7.152344,-0.898438,-0.222656,-0.773438,-0.087891,0.806641
57553.0,-1.890625,-0.910156,0.265625,7.835938,-1.722656,-0.382812,-0.765625,-0.283203,0.748047
57569.0,-2.234375,-0.871094,0.265625,7.703125,-1.761719,-0.429688,-0.544922,-0.345703,0.746094
57594.0,-4.152344,-0.871094,-0.003906,5.535156,-1.957031,-0.824219,-0.259766,-0.460938,0.642578
57609.0,-6.828125,-1.023438,-0.308594,4.332031,-2.050781,-1.0625,-0.039062,-0.642578,0.3125
57632.0,-13.308594,-0.488281,-0.960938,-3.667969,-1.667969,-2.023438,-0.042969,-0.708984,0.050781
57673.0,-13.996094,0.738281,0.761719,-4.363281,-0.152344,-0.589844,-1.513672,-0.546875,-0.818359
57699.0,-12.117188,-1.484375,2.292969,-2.808594,-1.171875,0.320312,-1.210938,0.490234,-1.634766
57720.0,-10.746094,-1.753906,3.289062,-1.789062,-2.515625,1.894531,-0.105469,0.970703,-1.271484
57744.0,-9.359375,1.542969,2.601562,0.355469,1.667969,1.5625,0.667969,0.761719,-0.884766
57759.0,-8.332031,3.304688,2.292969,0.976562,2.726562,1.5,0.517578,0.205078,-0.576172
57784.0,-7.632812,2.804688,1.375,2.097656,3.125,0.421875,0.099609,-0.095703,-0.291016
57799.0,-7.523438,1.042969,0.914062,2.203125,2.230469,0.109375,0.013672,-0.125,-0.027344
57824.0,-8.671875,-0.21875,0.992188,1.054688,0.125,-0.007812,0.003906,-0.130859,0.083984
57840.0,-9.703125,-0.21875,0.953125,0.546875,0.117188,-0.023438,-0.109375,-0.15625,0.107422
57863.0,-11.085938,-0.375,0.800781,-1.367188,-0.0625,-0.261719,-0.220703,-0.1875,0.130859
57880.0,-11.273438,-0.757812,0.839844,-1.527344,-0.269531,-0.324219,-0.289062,-0.144531,0.148438
57903.0,-10.589844,-1.0625,0.878906,-0.878906,-0.796875,-0.238281,-0.289062,-0.078125,0.101562
57920.0,-10.046875,-0.984375,0.992188,-0.609375,-0.804688,-0.171875,-0.279297,-0.003906,0.021484
57935.0,-9.78125,-0.871094,1.03125,0.195312,-0.574219,-0.019531,-0.304688,0.03125,-0.009766
57950.0,-9.097656,-0.871094,1.183594,0.425781,-0.519531,0.074219,-0.351562,0.117188,-0.054688
57973.0,-8.675781,-1.0625,1.261719,1.046875,-0.765625,0.191406,-0.365234,0.15625,-0.066406
57983.0,-8.59375,-1.214844,1.261719,1.121094,-0.902344,0.214844,-0.394531,0.232422,-0.097656
58000.0,-8.632812,-1.332031,1.296875,1.128906,-0.925781,0.273438,-0.373047,0.308594,-0.130859
58020.0,-9.054688,-1.332031,1.414062,0.824219,-1.007812,0.421875,-0.326172,0.392578,-0.164062
58040.0,-9.476562,-1.175781,1.453125,0.679688,-0.957031,0.492188,-0.289062,0.464844,-0.171875
58060.0,-10.242188,-1.332031,1.414062,-0.269531,-0.886719,0.625,-0.189453,0.537109,-0.154297
58086.0,-10.851562,-0.910156,1.527344,-1.105469,-0.425781,0.894531,-0.105469,0.435547,-0.099609
58110.0,-10.785156,-0.757812,1.796875,-1.066406,-0.257812,1.1875,0.105469,0.208984,-0.007812
58134.0,-10.472656,-0.640625,1.527344,-0.707031,-0.140625,0.996094,0.3125,0.025391,0.072266
58150.0,-10.203125,-0.296875,1.296875,-0.601562,-0.003906,0.914062,0.4375,-0.113281,0.152344
58165.0,-10.085938,-0.21875,1.144531,-0.179688,0.308594,0.46875,0.472656,-0.152344,0.179688
58180.0,-9.628906,-0.066406,0.800781,-0.054688,0.324219,0.328125,0.492188,-0.185547,0.207031
58203.0,-9.320312,0.085938,0.570312,0.433594,0.453125,-0.070312,0.492188,-0.175781,0.216797
58243.0,-9.242188,0.316406,0.378906,0.511719,0.582031,-0.316406,0.333984,-0.091797,0.238281
58284.0,-9.667969,0.277344,0.457031,0.097656,0.457031,-0.277344,-0.111328,-0.080078,0.191406
58300.0,-9.785156,0.164062,0.496094,0.058594,0.402344,-0.246094,-0.289062,-0.119141,0.144531
58324.0,-9.742188,-0.257812,0.609375,0.011719,-0.125,-0.164062,-0.408203,-0.134766,0.085938
58341.0,-9.664062,-0.566406,0.6875,0.011719,-0.324219,-0.179688,-0.404297,-0.111328,0.021484
58355.0,-9.664062,-0.640625,0.722656,0.089844,-0.476562,-0.011719,-0.382812,-0.091797,0.005859
58370.0,-9.667969,-0.527344,0.878906,0.089844,-0.433594,0.09375,-0.337891,-0.0625,-0.003906
58394.0,-9.625,-0.566406,0.878906,0.128906,-0.425781,0.050781,-0.298828,-0.039062,0.0
58404.0,-9.628906,-0.566406,0.914062,0.128906,-0.425781,0.078125,-0.191406,-0.003906,0.015625
58421.0,-9.703125,-0.488281,0.914062,0.089844,-0.386719,0.050781,-0.087891,-0.003906,0.037109
58435.0,-9.703125,-0.410156,0.914062,0.050781,-0.242188,0.042969,-0.060547,-0.007812,0.042969
58474.0,-9.628906,-0.144531,0.761719,0.128906,-0.019531,-0.074219,-0.005859,-0.005859,0.050781
58514.0,-9.664062,-0.144531,0.648438,0.089844,-0.035156,-0.1875,-0.044922,0.013672,0.044922
58531.0,-9.664062,-0.144531,0.609375,0.082031,-0.078125,-0.1875,-0.050781,0.039062,0.029297
58546.0,-9.625,-0.144531,0.648438,0.128906,-0.050781,-0.179688,-0.064453,0.048828,0.019531
58585.0,-9.519531,-0.21875,0.6875,0.242188,-0.117188,-0.125,-0.113281,0.068359,-0.015625
58601.0,-9.515625,-0.335938,0.609375,0.242188,-0.1875,-0.15625,-0.132812,0.113281,-0.039062
58625.0,-9.480469,-0.296875,0.570312,0.28125,-0.171875,-0.195312,-0.117188,0.160156,-0.037109
58642.0,-9.402344,-0.296875,0.609375,0.355469,-0.164062,-0.179688,-0.134766,0.15625,-0.035156
58663.0,-9.476562,-0.527344,0.6875,0.289062,-0.386719,-0.015625,-0.121094,0.162109,-0.037109
58695.0,-9.742188,-0.640625,0.570312,0.019531,-0.484375,-0.0625,-0.021484,0.195312,-0.03125
58711.0,-9.824219,-0.566406,0.496094,-0.054688,-0.445312,-0.085938,0.089844,0.197266,-0.009766
58731.0,-9.9375,-0.410156,0.457031,-0.09375,-0.324219,-0.089844,0.148438,0.203125,-0.017578
58751.0,-10.046875,-0.144531,0.378906,-0.246094,-0.054688,-0.128906,0.164062,0.191406,-0.048828
58775.0,-10.089844,-0.144531,0.378906,-0.324219,0.042969,-0.105469,0.158203,0.189453,-0.072266
58791.0,-10.050781,-0.179688,0.339844,-0.316406,0.015625,-0.089844,0.138672,0.167969,-0.136719
58816.0,-9.976562,-0.21875,0.339844,-0.203125,0.015625,-0.082031,0.123047,0.146484,-0.140625
58832.0,-9.898438,-0.179688,0.378906,-0.164062,0.023438,-0.066406,0.117188,0.138672,-0.140625
58855.0,-9.785156,-0.105469,0.300781,-0.011719,0.175781,-0.074219,0.128906,0.113281,-0.138672
58872.0,-9.78125,-0.027344,0.300781,-0.011719,0.238281,-0.027344,0.136719,0.076172,-0.130859
58895.0,-9.863281,-0.066406,0.300781,-0.085938,0.277344,-0.042969,0.105469,0.03125,-0.121094
58911.0,-9.902344,-0.105469,0.300781,-0.132812,0.285156,-0.042969,0.068359,-0.009766,-0.117188
58934.0,-9.941406,-0.21875,0.300781,-0.164062,0.171875,-0.050781,0.056641,-0.027344,-0.117188
58966.0,-9.898438,-0.296875,0.378906,-0.132812,0.117188,0.003906,0.013672,-0.066406,-0.103516
58982.0,-9.863281,-0.335938,0.378906,-0.09375,0.132812,-0.042969,0.005859,-0.097656,-0.099609
59004.0,-9.746094,-0.410156,0.339844,0.019531,0.042969,-0.066406,0.013672,-0.109375,-0.089844
59046.0,-9.703125,-0.566406,0.417969,0.050781,-0.082031,-0.035156,0.021484,-0.125,-0.078125
59062.0,-9.746094,-0.601562,0.417969,0.011719,-0.066406,-0.042969,0.003906,-0.138672,-0.078125
59087.0,-9.742188,-0.640625,0.496094,0.011719,-0.117188,-0.011719,0.005859,-0.142578,-0.074219
59116.0,-9.703125,-0.679688,0.496094,0.042969,-0.140625,-0.050781,0.033203,-0.138672,-0.056641
59132.0,-9.746094,-0.640625,0.53125,0.050781,-0.140625,-0.066406,0.080078,-0.126953,-0.042969
59165.0,-9.703125,-0.527344,0.53125,0.042969,0.027344,-0.078125,0.097656,-0.117188,-0.021484
59182.0,-9.707031,-0.488281,0.496094,0.042969,0.066406,-0.167969,0.09375,-0.111328,-0.021484
59197.0,-9.667969,-0.488281,0.496094,0.042969,0.066406,-0.222656,0.091797,-0.107422,-0.019531
59213.0,-9.707031,-0.488281,0.457031,0.042969,0.074219,-0.199219,0.085938,-0.097656,-0.017578
59235.0,-9.707031,-0.488281,0.378906,0.074219,-0.050781,-0.042969,0.074219,-0.097656,-0.021484
59276.0,-9.664062,-0.449219,0.457031,0.105469,-0.003906,0.003906,0.017578,-0.083984,-0.017578
59292.0,-9.625,-0.449219,0.457031,0.144531,0.035156,0.035156,-0.029297,-0.044922,-0.019531
59315.0,-9.628906,-0.527344,0.496094,0.128906,-0.074219,0.027344,-0.039062,-0.033203,-0.019531
59355.0,-9.628906,-0.601562,0.496094,0.113281,-0.125,0.019531,-0.027344,0.021484,0.001953
59373.0,-9.597656,-0.601562,0.53125,0.105469,-0.125,0.027344,0.003906,0.039062,0.009766
59387.0,-9.628906,-0.601562,0.496094,0.097656,-0.125,0.070312,0.015625,0.044922,0.011719
59402.0,-9.707031,-0.601562,0.496094,0.058594,-0.082031,0.035156,0.03125,0.056641,0.003906
59427.0,-9.703125,-0.566406,0.457031,0.011719,-0.074219,0.011719,0.039062,0.074219,-0.001953
59443.0,-9.707031,-0.488281,0.457031,0.011719,-0.027344,0.011719,0.03125,0.089844,-0.005859
59467.0,-9.707031,-0.410156,0.457031,0.003906,0.089844,0.042969,0.009766,0.109375,-0.011719
59483.0,-9.667969,-0.488281,0.457031,0.003906,0.050781,0.058594,-0.015625,0.115234,-0.011719
59506.0,-9.664062,-0.566406,0.417969,0.042969,-0.066406,0.050781,-0.021484,0.125,-0.009766
59523.0,-9.703125,-0.566406,0.457031,0.011719,-0.09375,0.097656,-0.015625,0.134766,-0.009766
59547.0,-9.746094,-0.488281,0.417969,-0.027344,0.027344,0.097656,-0.005859,0.134766,-0.011719
59563.0,-9.785156,-0.527344,0.417969,-0.066406,-0.011719,0.113281,0.013672,0.125,-0.011719
59577.0,-9.785156,-0.527344,0.378906,-0.027344,-0.011719,0.097656,0.019531,0.125,-0.005859
59593.0,-9.742188,-0.449219,0.378906,-0.027344,0.027344,0.113281,0.013672,0.123047,-0.003906
59616.0,-9.785156,-0.527344,0.417969,-0.066406,-0.011719,0.183594,-0.003906,0.115234,-0.001953
59626.0,-9.824219,-0.566406,0.417969,-0.101562,-0.042969,0.191406,-0.042969,0.109375,-0.017578
59657.0,-9.863281,-0.71875,0.457031,-0.140625,-0.195312,0.261719,-0.046875,0.107422,-0.003906
59673.0,-9.859375,-0.679688,0.417969,-0.140625,-0.195312,0.277344,-0.023438,0.103516,0.003906
59697.0,-9.859375,-0.679688,0.457031,-0.140625,-0.15625,0.308594,0.025391,0.09375,0.011719
59713.0,-9.824219,-0.566406,0.417969,-0.140625,-0.125,0.308594,0.048828,0.080078,0.027344
59737.0,-9.785156,-0.601562,0.378906,-0.066406,-0.09375,0.253906,0.044922,0.066406,0.037109
59753.0,-9.78125,-0.679688,0.417969,-0.066406,-0.132812,0.292969,0.052734,0.060547,0.044922
59768.0,-9.78125,-0.679688,0.417969,-0.101562,-0.179688,0.300781,0.066406,0.058594,0.048828
59783.0,-9.78125,-0.640625,0.339844,-0.066406,-0.140625,0.308594,0.083984,0.041016,0.041016
59805.0,-9.742188,-0.640625,0.339844,0.035156,-0.078125,-0.074219,0.091797,0.033203,0.042969
59846.0,-9.746094,-0.566406,0.300781,0.035156,-0.019531,-0.105469,0.125,0.009766,0.037109
59887.0,-9.820312,-0.449219,0.265625,-0.039062,0.097656,-0.125,0.111328,-0.007812,0.017578
59905.0,-9.78125,-0.488281,0.265625,-0.039062,0.050781,-0.125,0.078125,-0.017578,0.009766
59925.0,-9.78125,-0.527344,0.300781,-0.003906,0.011719,-0.089844,0.078125,-0.019531,0.007812
59967.0,-9.78125,-0.527344,0.300781,-0.003906,-0.003906,-0.089844,0.089844,-0.023438,0.013672
59984.0,-9.78125,-0.488281,0.300781,-0.003906,-0.003906,-0.117188,0.101562,-0.027344,0.021484
59998.0,-9.78125,-0.488281,0.265625,-0.011719,0.027344,-0.082031,0.099609,-0.027344,0.019531
60013.0,-9.820312,-0.449219,0.265625,-0.039062,0.066406,-0.117188,0.09375,-0.033203,0.017578
60037.0,-9.78125,-0.410156,0.265625,-0.003906,0.097656,-0.117188,0.085938,-0.03125,0.013672
60054.0,-9.785156,-0.449219,0.265625,-0.003906,0.089844,-0.117188,0.068359,-0.033203,0.011719
60077.0,-9.746094,-0.449219,0.265625,0.042969,0.042969,-0.117188,0.060547,-0.029297,0.007812
60094.0,-9.742188,-0.410156,0.265625,0.035156,0.082031,-0.117188,0.066406,-0.023438,0.009766
60117.0,-9.703125,-0.335938,0.265625,0.074219,0.140625,-0.109375,0.070312,-0.021484,0.003906
60134.0,-9.664062,-0.375,0.265625,0.074219,0.132812,-0.109375,0.050781,-0.027344,-0.005859
60157.0,-9.664062,-0.410156,0.265625,0.105469,0.058594,-0.101562,0.023438,-0.027344,-0.009766
60174.0,-9.667969,-0.449219,0.300781,0.105469,0.019531,-0.101562,-0.009766,-0.021484,-0.023438
60189.0,-9.703125,-0.488281,0.300781,0.019531,-0.066406,-0.101562,-0.009766,-0.015625,-0.029297
60204.0,-9.703125,-0.527344,0.300781,0.019531,-0.058594,-0.058594,0.005859,-0.003906,-0.025391
60225.0,-9.742188,-0.527344,0.300781,0.011719,-0.058594,-0.050781,0.0,0.003906,-0.023438
60268.0,-9.742188,-0.488281,0.300781,0.003906,-0.003906,-0.042969,0.017578,0.001953,-0.021484
60284.0,-9.703125,-0.527344,0.300781,0.003906,-0.003906,-0.035156,0.017578,0.003906,-0.009766
60308.0,-9.703125,-0.566406,0.339844,0.035156,-0.082031,0.011719,0.033203,0.013672,0.001953
60325.0,-9.746094,-0.488281,0.339844,0.003906,-0.035156,0.011719,0.048828,0.019531,0.005859
60348.0,-9.746094,-0.449219,0.300781,0.003906,0.042969,-0.019531,0.041016,0.015625,-0.003906
60365.0,-9.746094,-0.449219,0.300781,-0.042969,0.042969,-0.019531,0.029297,0.007812,0.0
60385.0,-9.742188,-0.488281,0.300781,0.035156,-0.035156,-0.011719,0.025391,0.007812,-0.003906
60405.0,-9.742188,-0.527344,0.300781,-0.003906,0.003906,-0.011719,0.027344,0.009766,-0.009766
60425.0,-9.824219,-0.410156,0.300781,-0.042969,0.042969,-0.011719,0.033203,0.005859,-0.007812
60445.0,-9.824219,-0.410156,0.300781,-0.078125,0.082031,-0.011719,0.023438,0.001953,-0.009766
60464.0,-9.820312,-0.410156,0.339844,-0.035156,0.082031,-0.011719,0.017578,0.0,-0.005859
60485.0,-9.820312,-0.449219,0.300781,-0.070312,0.082031,0.027344,0.013672,-0.005859,-0.005859
60505.0,-9.78125,-0.449219,0.339844,-0.035156,0.035156,-0.003906,0.021484,-0.009766,-0.003906
60529.0,-9.742188,-0.375,0.300781,0.011719,0.109375,-0.011719,0.023438,-0.007812,0.0
60545.0,-9.746094,-0.375,0.339844,0.011719,0.148438,-0.011719,-0.001953,-0.013672,0.007812
60569.0,-9.707031,-0.449219,0.300781,0.050781,0.019531,-0.019531,-0.003906,-0.015625,0.007812
60585.0,-9.707031,-0.488281,0.339844,0.050781,-0.027344,-0.011719,-0.021484,-0.013672,0.0
60607.0,-9.742188,-0.566406,0.339844,0.011719,-0.097656,0.019531,-0.027344,-0.015625,-0.003906
60649.0,-9.824219,-0.566406,0.378906,-0.0625,-0.097656,0.050781,0.003906,-0.009766,0.003906
60665.0,-9.785156,-0.488281,0.339844,-0.027344,-0.058594,0.011719,0.017578,-0.007812,0.005859
60688.0,-9.746094,-0.488281,0.339844,0.011719,-0.011719,0.003906,0.011719,-0.011719,0.013672
60705.0,-9.746094,-0.488281,0.378906,0.011719,-0.011719,0.003906,0.005859,-0.009766,0.017578
60728.0,-9.78125,-0.566406,0.378906,-0.035156,-0.089844,0.035156,-0.005859,-0.011719,0.023438
60745.0,-9.824219,-0.566406,0.378906,-0.027344,-0.089844,0.035156,-0.011719,-0.005859,0.023438
60768.0,-9.820312,-0.527344,0.378906,-0.0625,-0.058594,0.027344,0.015625,-0.001953,0.027344
60785.0,-9.785156,-0.488281,0.378906,-0.0625,-0.058594,0.027344,0.017578,-0.005859,0.027344
60816.0,-9.742188,-0.449219,0.339844,0.011719,0.019531,-0.019531,0.015625,-0.017578,0.027344
60838.0,-9.707031,-0.375,0.378906,0.050781,0.085938,0.011719,0.013672,-0.015625,0.03125
60855.0,-9.667969,-0.410156,0.378906,0.050781,0.125,-0.027344,-0.009766,-0.017578,0.037109
60878.0,-9.707031,-0.488281,0.339844,0.050781,-0.042969,-0.035156,-0.005859,-0.015625,0.041016
60918.0,-9.707031,-0.488281,0.339844,0.050781,-0.050781,-0.035156,-0.001953,-0.019531,0.015625
60958.0,-9.707031,-0.527344,0.378906,0.035156,-0.089844,-0.011719,-0.019531,-0.015625,0.005859
60989.0,-9.785156,-0.410156,0.378906,-0.035156,0.035156,-0.003906,-0.017578,-0.001953,-0.001953
61005.0,-9.785156,-0.410156,0.378906,-0.085938,0.035156,0.003906,-0.015625,-0.007812,0.001953
61027.0,-9.746094,-0.375,0.457031,-0.003906,0.070312,0.074219,-0.015625,-0.011719,0.001953
61039.0,-9.746094,-0.375,0.378906,-0.003906,0.070312,-0.003906,-0.011719,-0.007812,0.007812
61055.0,-9.746094,-0.410156,0.457031,-0.003906,0.070312,0.074219,-0.023438,-0.003906,0.011719
61086.0,-9.707031,-0.410156,0.417969,0.027344,0.0625,0.027344,-0.027344,0.003906,0.015625
61109.0,-9.703125,-0.449219,0.417969,0.027344,-0.019531,0.027344,-0.03125,0.001953,0.015625
61126.0,-9.746094,-0.488281,0.378906,0.027344,-0.019531,0.027344,-0.025391,0.001953,0.009766
61149.0,-9.742188,-0.449219,0.417969,-0.011719,-0.019531,0.035156,-0.017578,0.003906,0.003906
61166.0,-9.707031,-0.410156,0.339844,0.027344,0.011719,-0.011719,-0.017578,0.009766,-0.001953
61186.0,-9.707031,-0.375,0.378906,0.066406,0.011719,-0.050781,-0.021484,0.009766,0.0
61206.0,-9.707031,-0.410156,0.378906,0.027344,0.046875,-0.011719,-0.035156,0.003906,-0.001953
61226.0,-9.746094,-0.410156,0.378906,0.019531,0.046875,-0.003906,-0.033203,-0.001953,-0.003906
61247.0,-9.746094,-0.410156,0.339844,-0.019531,0.011719,-0.003906,-0.021484,-0.001953,-0.005859
61266.0,-9.746094,-0.410156,0.339844,-0.019531,0.011719,-0.042969,-0.021484,-0.003906,-0.003906
61299.0,-9.746094,-0.488281,0.378906,-0.019531,-0.066406,-0.003906,-0.041016,-0.007812,-0.011719
61330.0,-9.78125,-0.449219,0.378906,-0.050781,-0.011719,-0.003906,-0.056641,-0.005859,-0.025391
61346.0,-9.742188,-0.449219,0.417969,-0.050781,-0.003906,0.035156,-0.050781,-0.007812,-0.019531
61371.0,-9.746094,-0.527344,0.457031,-0.019531,-0.121094,0.074219,-0.041016,-0.013672,-0.019531
61386.0,-9.785156,-0.488281,0.417969,-0.011719,-0.035156,0.074219,-0.021484,-0.011719,-0.009766
61411.0,-9.785156,-0.488281,0.417969,-0.050781,-0.027344,0.027344,-0.03125,-0.009766,0.0
61426.0,-9.742188,-0.566406,0.417969,-0.011719,-0.066406,0.027344,-0.029297,-0.009766,0.001953
61450.0,-9.703125,-0.566406,0.417969,0.027344,-0.097656,0.019531,-0.005859,-0.007812,0.0
61467.0,-9.703125,-0.449219,0.378906,0.027344,-0.058594,0.011719,-0.001953,-0.013672,-0.007812
61488.0,-9.628906,-0.488281,0.378906,0.105469,-0.011719,-0.027344,-0.005859,-0.013672,-0.007812
61530.0,-9.746094,-0.527344,0.417969,-0.019531,-0.042969,0.019531,-0.037109,0.001953,-0.023438
61547.0,-9.785156,-0.488281,0.417969,-0.058594,-0.042969,0.019531,-0.035156,0.003906,-0.019531
61577.0,-9.742188,-0.566406,0.417969,-0.019531,-0.027344,-0.027344,-0.015625,0.003906,-0.011719
61600.0,-9.707031,-0.488281,0.378906,0.019531,0.011719,-0.019531,-0.007812,0.001953,-0.005859
61617.0,-9.703125,-0.449219,0.339844,0.019531,0.050781,0.019531,-0.007812,0.007812,-0.003906
61639.0,-9.703125,-0.449219,0.339844,0.019531,0.058594,-0.058594,-0.003906,0.009766,0.0
61679.0,-9.707031,-0.527344,0.378906,0.019531,-0.019531,-0.011719,-0.042969,0.015625,0.0
61719.0,-9.742188,-0.566406,0.417969,-0.027344,-0.058594,0.042969,-0.044922,0.019531,-0.003906
61760.0,-9.746094,-0.527344,0.417969,-0.027344,-0.011719,0.050781,-0.017578,0.03125,0.003906
61777.0,-9.746094,-0.488281,0.417969,-0.066406,-0.011719,0.019531,-0.019531,0.03125,0.005859
61798.0,-9.785156,-0.488281,0.378906,-0.050781,-0.019531,-0.019531,-0.013672,0.03125,0.011719
61818.0,-9.742188,-0.449219,0.378906,-0.050781,0.019531,0.027344,-0.013672,0.03125,0.015625
61831.0,-9.742188,-0.449219,0.378906,-0.019531,0.050781,-0.011719,-0.013672,0.033203,0.015625
61847.0,-9.707031,-0.601562,0.378906,0.019531,-0.027344,-0.011719,-0.025391,0.027344,0.017578
61870.0,-9.746094,-0.601562,0.378906,-0.019531,-0.101562,0.035156,-0.027344,0.025391,0.013672
61911.0,-9.785156,-0.527344,0.339844,-0.050781,-0.027344,0.011719,0.009766,0.025391,0.009766
61928.0,-9.78125,-0.449219,0.378906,-0.042969,0.011719,0.050781,0.019531,0.015625,0.005859
61950.0,-9.78125,-0.335938,0.300781,-0.042969,0.164062,-0.035156,0.025391,0.009766,0.007812
61967.0,-9.746094,-0.335938,0.339844,-0.042969,0.15625,-0.027344,0.007812,0.007812,0.021484
61987.0,-9.746094,-0.410156,0.339844,0.042969,0.117188,-0.027344,0.0,0.0,0.027344
62007.0,-9.742188,-0.410156,0.300781,0.003906,0.027344,-0.027344,0.011719,-0.001953,0.023438
62027.0,-9.742188,-0.375,0.300781,0.042969,0.09375,-0.035156,0.0,-0.007812,0.003906
62047.0,-9.742188,-0.375,0.265625,0.003906,0.09375,-0.035156,-0.025391,-0.013672,-0.001953
62067.0,-9.746094,-0.449219,0.300781,0.003906,0.050781,-0.070312,-0.050781,-0.005859,-0.013672
62088.0,-9.746094,-0.449219,0.300781,0.003906,0.011719,-0.027344,-0.052734,0.0,-0.019531
62108.0,-9.78125,-0.410156,0.300781,-0.035156,0.042969,-0.027344,-0.052734,-0.001953,-0.021484
62133.0,-9.785156,-0.449219,0.300781,-0.027344,0.011719,-0.027344,-0.041016,-0.009766,-0.015625
62147.0,-9.785156,-0.449219,0.300781,-0.027344,0.003906,-0.019531,-0.019531,-0.011719,-0.007812
62177.0,-9.78125,-0.375,0.300781,-0.070312,0.050781,-0.027344,-0.015625,-0.009766,-0.003906
62198.0,-9.78125,-0.335938,0.300781,-0.027344,0.078125,-0.054688,-0.029297,-0.003906,-0.003906
62212.0,-9.78125,-0.335938,0.300781,0.011719,0.117188,-0.027344,-0.048828,-0.005859,-0.005859
62228.0,-9.78125,-0.335938,0.300781,-0.027344,0.109375,-0.054688,-0.078125,-0.009766,-0.005859
62258.0,-9.746094,-0.449219,0.300781,0.019531,-0.003906,-0.019531,-0.089844,-0.009766,-0.011719
62277.0,-9.746094,-0.488281,0.339844,0.019531,-0.011719,0.019531,-0.078125,-0.005859,-0.009766
62297.0,-9.746094,-0.488281,0.339844,0.019531,-0.011719,0.019531,-0.052734,-0.005859,-0.001953
62318.0,-9.742188,-0.449219,0.339844,0.019531,-0.050781,0.019531,-0.037109,-0.003906,0.001953
62337.0,-9.707031,-0.410156,0.339844,0.050781,0.027344,0.019531,-0.03125,-0.005859,-0.001953
62349.0,-9.667969,-0.449219,0.300781,0.050781,0.027344,0.019531,-0.037109,-0.005859,-0.005859
62368.0,-9.703125,-0.375,0.300781,0.050781,0.035156,-0.019531,-0.048828,-0.013672,-0.009766
62388.0,-9.667969,-0.449219,0.300781,0.011719,0.035156,-0.019531,-0.054688,-0.009766,-0.015625
62408.0,-9.746094,-0.527344,0.339844,0.042969,-0.003906,0.011719,-0.074219,-0.009766,-0.017578
62428.0,-9.742188,-0.449219,0.339844,0.035156,-0.042969,0.011719,-0.058594,-0.005859,-0.021484
62448.0,-9.742188,-0.449219,0.417969,0.003906,-0.035156,0.011719,-0.039062,-0.005859,-0.017578
62468.0,-9.78125,-0.449219,0.339844,-0.003906,0.003906,0.082031,-0.042969,-0.009766,-0.017578
62488.0,-9.78125,-0.449219,0.339844,-0.035156,0.050781,0.003906,-0.03125,-0.015625,-0.017578
62521.0,-9.742188,-0.410156,0.300781,-0.003906,0.050781,-0.042969,-0.037109,-0.015625,-0.011719
62538.0,-9.703125,-0.488281,0.300781,0.042969,0.019531,-0.042969,-0.054688,-0.017578,-0.009766
62561.0,-9.742188,-0.488281,0.300781,-0.011719,-0.019531,-0.042969,-0.044922,-0.013672,-0.005859
62578.0,-9.703125,-0.488281,0.300781,0.027344,-0.019531,-0.042969,-0.042969,-0.013672,-0.021484
62599.0,-9.703125,-0.566406,0.339844,0.027344,-0.050781,-0.042969,-0.060547,-0.015625,-0.021484
62619.0,-9.703125,-0.566406,0.339844,0.027344,-0.089844,-0.011719,-0.0625,-0.007812,-0.029297
62633.0,-9.707031,-0.601562,0.339844,-0.019531,-0.082031,0.027344,-0.0625,-0.003906,-0.033203
62648.0,-9.746094,-0.527344,0.378906,-0.019531,-0.074219,-0.011719,-0.052734,0.001953,-0.029297
62672.0,-9.785156,-0.601562,0.339844,-0.058594,-0.09375,-0.003906,-0.041016,0.003906,-0.023438
62688.0,-9.78125,-0.566406,0.378906,-0.058594,-0.058594,0.035156,-0.033203,0.001953,-0.011719
62712.0,-9.746094,-0.601562,0.378906,-0.011719,-0.078125,0.035156,-0.029297,0.001953,-0.007812
62729.0,-9.742188,-0.566406,0.378906,-0.011719,-0.042969,0.035156,-0.027344,0.009766,-0.003906
62751.0,-9.742188,-0.566406,0.339844,-0.011719,-0.035156,-0.003906,-0.025391,0.013672,-0.003906
62791.0,-9.742188,-0.640625,0.378906,-0.011719,-0.101562,0.035156,-0.03125,0.017578,-0.005859
62809.0,-9.742188,-0.640625,0.378906,-0.011719,-0.101562,-0.003906,-0.025391,0.017578,-0.005859
62829.0,-9.785156,-0.601562,0.378906,-0.050781,-0.046875,0.003906,-0.025391,0.021484,-0.005859
62849.0,-9.78125,-0.640625,0.378906,-0.050781,-0.046875,0.050781,-0.027344,0.025391,-0.003906
62869.0,-9.78125,-0.679688,0.378906,-0.042969,-0.117188,0.050781,-0.013672,0.027344,0.003906
62902.0,-9.824219,-0.640625,0.417969,-0.070312,-0.070312,0.089844,0.007812,0.027344,0.017578
62919.0,-9.863281,-0.601562,0.378906,-0.070312,-0.070312,0.089844,0.029297,0.03125,0.025391
62942.0,-9.785156,-0.527344,0.339844,-0.027344,0.042969,0.019531,0.037109,0.037109,0.03125
62959.0,-9.742188,-0.566406,0.378906,0.011719,0.035156,0.019531,0.025391,0.027344,0.039062
62982.0,-9.707031,-0.601562,0.339844,0.058594,-0.039062,0.027344,0.011719,0.023438,0.039062
62999.0,-9.746094,-0.601562,0.339844,0.058594,-0.046875,0.027344,0.039062,0.027344,0.041016
63013.0,-9.742188,-0.566406,0.339844,0.011719,-0.011719,0.019531,0.048828,0.03125,0.041016
63029.0,-9.703125,-0.527344,0.300781,0.019531,0.019531,-0.019531,0.041016,0.025391,0.035156
63050.0,-9.78125,-0.527344,0.300781,-0.019531,0.011719,-0.011719,0.048828,0.019531,0.03125
63093.0,-9.78125,-0.527344,0.300781,-0.019531,-0.003906,-0.011719,0.023438,0.007812,0.027344
63109.0,-9.785156,-0.527344,0.339844,-0.019531,-0.003906,0.027344,0.033203,0.003906,0.029297
63132.0,-9.78125,-0.488281,0.300781,-0.019531,0.027344,-0.011719,0.033203,-0.001953,0.027344
63150.0,-9.742188,-0.488281,0.300781,0.019531,0.058594,-0.019531,0.023438,-0.005859,0.021484
63172.0,-9.746094,-0.566406,0.300781,0.019531,-0.058594,-0.019531,0.007812,-0.015625,0.015625
63190.0,-9.746094,-0.601562,0.339844,-0.019531,-0.101562,-0.019531,0.009766,-0.015625,0.005859
63220.0,-9.785156,-0.566406,0.300781,-0.019531,-0.066406,0.019531,0.03125,-0.011719,0.007812
63242.0,-9.746094,-0.527344,0.339844,0.019531,-0.019531,0.011719,0.042969,-0.011719,0.007812
63260.0,-9.742188,-0.488281,0.300781,0.019531,-0.019531,0.011719,0.064453,-0.019531,0.009766
63282.0,-9.742188,-0.449219,0.339844,0.019531,0.058594,0.003906,0.066406,-0.019531,0.007812
63299.0,-9.742188,-0.410156,0.300781,0.019531,0.097656,-0.035156,0.054688,-0.019531,-0.001953
63323.0,-9.742188,-0.410156,0.300781,0.019531,0.089844,-0.042969,0.033203,-0.019531,-0.005859
63340.0,-9.742188,-0.410156,0.300781,0.003906,0.089844,-0.050781,0.013672,-0.025391,-0.009766
63362.0,-9.707031,-0.488281,0.339844,0.050781,0.011719,-0.011719,0.013672,-0.023438,-0.013672
63395.0,-9.742188,-0.449219,0.378906,0.042969,0.003906,0.019531,0.015625,-0.029297,-0.017578
63432.0,-9.703125,-0.449219,0.378906,0.042969,0.050781,0.011719,0.021484,-0.03125,-0.011719
63442.0,-9.742188,-0.449219,0.339844,-0.003906,0.050781,-0.027344,0.019531,-0.029297,-0.011719
63474.0,-9.707031,-0.488281,0.378906,0.042969,0.011719,0.003906,0.001953,-0.033203,-0.019531
63490.0,-9.707031,-0.601562,0.378906,0.035156,-0.066406,-0.042969,0.007812,-0.03125,-0.017578
63514.0,-9.703125,-0.679688,0.378906,0.027344,-0.171875,-0.003906,0.019531,-0.027344,-0.017578
63530.0,-9.742188,-0.640625,0.417969,0.027344,-0.164062,-0.011719,0.023438,-0.027344,-0.015625
63551.0,-9.742188,-0.566406,0.417969,-0.011719,-0.042969,0.019531,0.025391,-0.025391,-0.019531
63593.0,-9.785156,-0.527344,0.457031,-0.050781,0.003906,0.042969,0.039062,-0.019531,-0.011719
63610.0,-9.785156,-0.488281,0.417969,-0.050781,0.003906,0.042969,0.046875,-0.017578,-0.007812
63631.0,-9.742188,-0.449219,0.417969,-0.011719,0.042969,-0.042969,0.056641,-0.015625,0.005859
63650.0,-9.703125,-0.449219,0.378906,-0.011719,0.082031,-0.003906,0.052734,-0.013672,0.013672
63670.0,-9.707031,-0.449219,0.300781,0.027344,0.082031,-0.082031,0.056641,-0.019531,0.013672
63691.0,-9.664062,-0.410156,0.300781,0.027344,0.074219,-0.121094,0.033203,-0.017578,0.001953
63711.0,-9.667969,-0.449219,0.300781,0.066406,0.140625,-0.128906,-0.007812,-0.021484,-0.011719
63744.0,-9.742188,-0.566406,0.378906,-0.011719,-0.050781,-0.042969,-0.046875,-0.009766,-0.023438
63760.0,-9.742188,-0.566406,0.378906,-0.027344,-0.042969,-0.042969,-0.027344,0.001953,-0.025391
63783.0,-9.785156,-0.527344,0.417969,-0.058594,-0.011719,0.003906,-0.009766,0.001953,-0.023438
63814.0,-9.746094,-0.527344,0.417969,-0.019531,-0.003906,0.011719,0.017578,-0.005859,-0.003906
63830.0,-9.785156,-0.488281,0.417969,-0.019531,0.035156,-0.027344,0.027344,0.003906,0.007812
63854.0,-9.78125,-0.449219,0.378906,-0.058594,0.066406,-0.019531,0.019531,0.009766,0.007812
63871.0,-9.785156,-0.488281,0.339844,-0.019531,0.066406,-0.019531,-0.001953,0.009766,0.011719
63894.0,-9.707031,-0.527344,0.417969,0.019531,-0.019531,0.019531,-0.013672,0.013672,0.011719
63934.0,-9.667969,-0.527344,0.417969,0.058594,-0.027344,0.027344,-0.005859,0.015625,0.015625
63951.0,-9.667969,-0.527344,0.417969,0.097656,-0.027344,0.027344,0.001953,0.017578,0.017578
63972.0,-9.667969,-0.527344,0.417969,0.058594,-0.035156,0.035156,0.007812,0.017578,0.023438
64014.0,-9.664062,-0.449219,0.339844,0.050781,0.035156,-0.035156,0.025391,0.015625,0.025391
64031.0,-9.707031,-0.410156,0.378906,0.019531,0.066406,0.003906,0.013672,0.019531,0.019531
64061.0,-9.664062,-0.449219,0.339844,0.050781,0.09375,-0.035156,-0.027344,0.019531,0.013672
64084.0,-9.703125,-0.566406,0.417969,0.003906,-0.097656,0.050781,-0.044922,0.017578,0.009766
64094.0,-9.746094,-0.601562,0.457031,-0.035156,-0.132812,0.089844,-0.060547,0.021484,0.007812
64111.0,-9.785156,-0.601562,0.457031,-0.074219,-0.132812,0.058594,-0.029297,0.041016,0.003906
64131.0,-9.824219,-0.566406,0.457031,-0.109375,-0.132812,0.136719,-0.001953,0.044922,0.015625
64156.0,-9.820312,-0.488281,0.496094,-0.101562,-0.019531,0.136719,0.017578,0.041016,0.017578
64181.0,-9.820312,-0.375,0.417969,-0.09375,0.058594,0.105469,0.017578,0.041016,0.027344
64204.0,-9.746094,-0.375,0.417969,-0.011719,0.085938,0.066406,0.009766,0.042969,0.039062
64221.0,-9.707031,-0.375,0.417969,-0.011719,0.042969,0.066406,0.019531,0.041016,0.039062
64235.0,-9.667969,-0.410156,0.378906,0.074219,0.070312,0.027344,0.027344,0.037109,0.037109
64251.0,-9.664062,-0.449219,0.378906,0.074219,0.027344,0.035156,0.015625,0.03125,0.027344
64275.0,-9.667969,-0.488281,0.339844,0.066406,-0.050781,-0.003906,0.003906,0.029297,0.007812
64292.0,-9.707031,-0.488281,0.339844,0.027344,-0.050781,-0.003906,0.005859,0.03125,-0.007812
64313.0,-9.742188,-0.449219,0.378906,-0.011719,-0.011719,0.035156,0.011719,0.033203,-0.013672
64355.0,-9.746094,-0.410156,0.339844,-0.011719,0.035156,0.003906,0.021484,0.009766,-0.019531
64372.0,-9.746094,-0.410156,0.378906,-0.011719,0.035156,0.003906,0.017578,0.007812,-0.019531
64402.0,-9.746094,-0.410156,0.339844,-0.050781,0.035156,0.003906,0.015625,0.005859,-0.019531
64425.0,-9.78125,-0.449219,0.339844,-0.050781,0.003906,0.003906,0.003906,0.001953,-0.025391
64442.0,-9.746094,-0.488281,0.339844,-0.011719,0.003906,0.003906,-0.013672,-0.003906,-0.033203
64464.0,-9.746094,-0.527344,0.378906,-0.011719,-0.058594,0.042969,-0.011719,-0.003906,-0.029297
64475.0,-9.707031,-0.527344,0.378906,0.035156,-0.058594,0.042969,-0.001953,0.003906,-0.033203
64505.0,-9.707031,-0.527344,0.378906,0.035156,-0.042969,0.035156,0.013672,0.011719,-0.03125
64522.0,-9.746094,-0.527344,0.378906,0.035156,-0.042969,-0.003906,0.017578,0.009766,-0.027344
64544.0,-9.707031,-0.488281,0.339844,0.027344,0.003906,0.003906,0.025391,0.009766,-0.027344
64585.0,-9.742188,-0.449219,0.339844,-0.019531,0.050781,0.003906,0.023438,0.021484,-0.023438
64602.0,-9.707031,-0.527344,0.339844,-0.011719,0.011719,0.003906,0.013672,0.027344,-0.019531
64616.0,-9.703125,-0.527344,0.300781,0.019531,-0.058594,0.050781,0.0,0.027344,-0.021484
64632.0,-9.746094,-0.601562,0.339844,-0.019531,-0.050781,0.050781,0.015625,0.03125,-0.023438
64656.0,-9.742188,-0.566406,0.339844,-0.011719,-0.042969,0.019531,0.039062,0.041016,-0.011719
64672.0,-9.707031,-0.527344,0.339844,-0.011719,-0.042969,0.027344,0.042969,0.044922,-0.011719
64696.0,-9.746094,-0.527344,0.339844,-0.011719,0.003906,0.035156,0.056641,0.046875,-0.005859
64712.0,-9.742188,-0.449219,0.339844,-0.011719,0.042969,-0.003906,0.058594,0.048828,0.0
64734.0,-9.703125,-0.449219,0.339844,0.027344,0.082031,0.042969,0.044922,0.042969,0.007812
64766.0,-9.703125,-0.488281,0.300781,0.027344,0.035156,0.011719,0.060547,0.041016,0.007812
64782.0,-9.703125,-0.488281,0.265625,0.027344,0.074219,0.019531,0.0625,0.039062,0.0
64815.0,-9.703125,-0.527344,0.265625,0.019531,-0.011719,0.0,0.027344,0.037109,-0.007812
64832.0,-9.703125,-0.527344,0.300781,0.019531,-0.011719,0.035156,0.005859,0.041016,-0.019531
64852.0,-9.746094,-0.601562,0.339844,-0.019531,-0.011719,0.035156,0.013672,0.039062,-0.019531
64872.0,-9.742188,-0.640625,0.339844,-0.019531,-0.085938,0.082031,0.027344,0.039062,-0.015625
64887.0,-9.746094,-0.640625,0.300781,-0.019531,-0.109375,0.050781,0.046875,0.037109,-0.007812
64903.0,-9.742188,-0.601562,0.300781,-0.027344,-0.070312,0.089844,0.072266,0.035156,-0.001953
64925.0,-9.785156,-0.640625,0.300781,-0.050781,-0.101562,0.050781,0.080078,0.037109,0.0
64965.0,-9.824219,-0.601562,0.300781,-0.09375,-0.054688,0.058594,0.060547,0.041016,-0.015625
64982.0,-9.824219,-0.601562,0.300781,-0.050781,-0.046875,0.058594,0.048828,0.041016,-0.019531
65005.0,-9.824219,-0.71875,0.300781,-0.078125,-0.15625,0.058594,0.054688,0.042969,-0.019531
65037.0,-9.824219,-0.71875,0.300781,-0.070312,-0.140625,0.066406,0.115234,0.042969,-0.007812
65053.0,-9.863281,-0.679688,0.300781,-0.070312,-0.101562,0.066406,0.144531,0.039062,0.001953
65075.0,-9.902344,-0.566406,0.300781,-0.140625,0.027344,0.066406,0.154297,0.037109,0.005859
65102.0,-9.78125,-0.527344,0.265625,-0.054688,0.019531,0.03125,0.158203,0.03125,0.017578
65124.0,-9.707031,-0.449219,0.265625,0.066406,0.097656,0.03125,0.160156,0.029297,0.021484
65156.0,-9.625,-0.527344,0.265625,0.136719,0.050781,0.03125,0.150391,0.019531,0.027344
65173.0,-9.703125,-0.527344,0.265625,0.097656,0.042969,0.03125,0.15625,0.019531,0.025391
65195.0,-9.746094,-0.566406,0.265625,0.019531,-0.011719,0.03125,0.169922,0.019531,0.023438
65226.0,-9.703125,-0.601562,0.265625,0.050781,-0.054688,0.03125,0.173828,0.027344,0.019531
65243.0,-9.785156,-0.527344,0.226562,0.011719,-0.054688,0.03125,0.199219,0.037109,0.023438
65266.0,-9.785156,-0.410156,0.226562,-0.027344,0.121094,0.0,0.208984,0.037109,0.027344
65283.0,-9.785156,-0.335938,0.226562,-0.027344,0.148438,0.0,0.21875,0.037109,0.048828
65306.0,-9.785156,-0.335938,0.226562,-0.027344,0.171875,0.007812,0.220703,0.037109,0.054688
65346.0,-9.742188,-0.375,0.148438,0.011719,0.085938,-0.0625,0.195312,0.039062,0.052734
65363.0,-9.785156,-0.449219,0.148438,0.011719,0.042969,-0.0625,0.169922,0.042969,0.048828
65386.0,-9.785156,-0.449219,0.148438,-0.019531,-0.019531,-0.046875,0.175781,0.046875,0.048828
65403.0,-9.78125,-0.410156,0.109375,-0.019531,-0.027344,-0.039062,0.220703,0.058594,0.060547
65418.0,-9.78125,-0.410156,0.109375,0.019531,-0.003906,-0.0625,0.242188,0.054688,0.066406
65458.0,-9.742188,-0.257812,0.074219,0.019531,0.125,-0.082031,0.230469,0.048828,0.064453
65473.0,-9.746094,-0.296875,0.074219,0.019531,0.078125,-0.121094,0.207031,0.054688,0.050781
65497.0,-9.746094,-0.410156,0.035156,0.019531,-0.050781,-0.105469,0.185547,0.056641,0.044922
65513.0,-9.667969,-0.449219,0.074219,0.058594,-0.097656,-0.097656,0.193359,0.058594,0.044922
65537.0,-9.558594,-0.449219,0.074219,0.210938,-0.113281,-0.050781,0.216797,0.066406,0.046875
65554.0,-9.476562,-0.449219,0.074219,0.25,-0.113281,-0.042969,0.255859,0.066406,0.041016
65577.0,-9.519531,-0.488281,0.035156,0.25,-0.167969,-0.058594,0.291016,0.064453,0.037109
65594.0,-9.597656,-0.488281,-0.003906,0.164062,-0.207031,-0.089844,0.310547,0.064453,0.027344
65617.0,-9.742188,-0.335938,-0.042969,0.019531,-0.015625,-0.113281,0.326172,0.066406,0.005859
65634.0,-9.78125,-0.335938,-0.082031,-0.019531,-0.023438,-0.144531,0.314453,0.0625,-0.015625
65648.0,-9.820312,-0.296875,-0.082031,-0.019531,0.015625,-0.164062,0.310547,0.060547,-0.017578
65663.0,-9.785156,-0.296875,-0.042969,-0.019531,0.015625,-0.128906,0.302734,0.058594,-0.021484
65687.0,-9.785156,-0.296875,-0.003906,-0.019531,0.023438,-0.035156,0.277344,0.054688,-0.023438
65703.0,-9.785156,-0.296875,-0.003906,-0.019531,0.023438,-0.027344,0.269531,0.052734,-0.023438
65727.0,-9.742188,-0.335938,-0.003906,0.019531,-0.007812,-0.019531,0.289062,0.058594,-0.019531
65744.0,-9.703125,-0.375,-0.042969,0.019531,-0.046875,-0.011719,0.292969,0.050781,-0.017578
65757.0,-9.664062,-0.375,-0.042969,0.027344,-0.007812,-0.058594,0.298828,0.048828,-0.021484
65807.0,-9.824219,-0.566406,-0.15625,-0.117188,-0.183594,-0.148438,0.339844,0.048828,-0.021484
65824.0,-9.78125,-0.488281,-0.195312,-0.15625,-0.136719,-0.21875,0.341797,0.048828,-0.023438
65838.0,-9.785156,-0.449219,-0.195312,-0.042969,-0.011719,-0.164062,0.341797,0.048828,-0.023438
65858.0,-9.703125,-0.375,-0.195312,0.003906,0.03125,-0.15625,0.318359,0.044922,-0.027344
65885.0,-9.703125,-0.410156,-0.195312,0.011719,0.046875,-0.132812,0.259766,0.039062,-0.035156
65918.0,-9.78125,-0.566406,-0.15625,-0.066406,-0.128906,-0.070312,0.246094,0.03125,-0.027344
65935.0,-9.902344,-0.601562,-0.15625,-0.101562,-0.15625,-0.023438,0.273438,0.033203,-0.025391
65958.0,-10.007812,-0.527344,-0.195312,-0.285156,-0.066406,-0.09375,0.289062,0.029297,-0.021484
65975.0,-10.085938,-0.527344,-0.195312,-0.324219,-0.058594,-0.085938,0.291016,0.037109,-0.015625
66005.0,-10.046875,-0.375,-0.15625,-0.292969,0.066406,-0.023438,0.28125,0.050781,0.0
66028.0,-10.046875,-0.335938,-0.15625,-0.269531,0.140625,-0.007812,0.265625,0.048828,0.003906
66044.0,-10.046875,-0.375,-0.15625,-0.261719,0.140625,0.0,0.208984,0.027344,0.015625
66067.0,-9.941406,-0.566406,-0.117188,-0.117188,-0.105469,0.046875,0.199219,0.023438,0.023438
66084.0,-9.785156,-0.640625,-0.082031,-0.03125,-0.140625,0.046875,0.208984,0.025391,0.048828
66107.0,-9.664062,-0.757812,-0.082031,0.167969,-0.304688,0.082031,0.230469,0.027344,0.054688
66125.0,-9.664062,-0.757812,-0.082031,0.175781,-0.304688,0.082031,0.279297,0.025391,0.074219
66147.0,-9.554688,-0.71875,-0.195312,0.289062,-0.265625,-0.03125,0.294922,0.021484,0.074219
66165.0,-9.597656,-0.679688,-0.234375,0.25,-0.226562,0.007812,0.316406,0.013672,0.060547
66187.0,-9.597656,-0.679688,-0.234375,0.234375,-0.21875,-0.070312,0.316406,0.013672,0.058594
66219.0,-9.664062,-0.640625,-0.273438,0.136719,-0.171875,-0.109375,0.283203,-0.001953,0.042969
66235.0,-9.664062,-0.640625,-0.273438,0.136719,-0.164062,-0.109375,0.257812,0.0,0.044922
66259.0,-9.742188,-0.640625,-0.15625,0.042969,-0.15625,0.007812,0.228516,-0.001953,0.048828
66275.0,-9.824219,-0.640625,-0.117188,0.035156,-0.195312,0.007812,0.208984,-0.007812,0.052734
66299.0,-9.941406,-0.640625,-0.117188,-0.164062,-0.148438,0.046875,0.214844,-0.003906,0.056641
66315.0,-9.9375,-0.527344,-0.117188,-0.15625,-0.109375,0.039062,0.222656,0.005859,0.076172
66336.0,-9.820312,-0.449219,-0.042969,-0.039062,0.035156,0.113281,0.208984,0.015625,0.087891
66379.0,-9.628906,-0.640625,-0.042969,0.152344,-0.1875,0.113281,0.193359,0.037109,0.121094
66396.0,-9.664062,-0.640625,-0.117188,0.152344,-0.195312,0.074219,0.208984,0.050781,0.119141
66417.0,-9.664062,-0.601562,-0.195312,0.105469,-0.164062,-0.03125,0.220703,0.060547,0.121094
66435.0,-9.746094,-0.527344,-0.234375,0.058594,-0.136719,-0.03125,0.226562,0.066406,0.113281
66449.0,-9.746094,-0.527344,-0.273438,0.066406,-0.074219,-0.101562,0.226562,0.072266,0.107422
66466.0,-9.742188,-0.335938,-0.347656,0.019531,-0.003906,-0.09375,0.208984,0.085938,0.091797
66488.0,-9.707031,-0.257812,-0.425781,0.050781,0.132812,-0.214844,0.191406,0.089844,0.089844
66505.0,-9.703125,-0.21875,-0.464844,0.011719,0.125,-0.207031,0.113281,0.070312,0.089844
66529.0,-9.824219,-0.21875,-0.464844,-0.070312,0.140625,-0.214844,0.058594,0.058594,0.091797
66546.0,-9.824219,-0.296875,-0.5,-0.035156,0.09375,-0.214844,0.009766,0.052734,0.097656
66560.0,-9.78125,-0.335938,-0.464844,-0.070312,-0.007812,-0.152344,-0.015625,0.054688,0.095703
66576.0,-9.78125,-0.335938,-0.386719,-0.0625,-0.023438,-0.152344,-0.054688,0.050781,0.091797
66600.0,-9.824219,-0.335938,-0.347656,-0.0625,-0.085938,-0.136719,-0.074219,0.046875,0.097656
66625.0,-9.785156,-0.375,-0.425781,0.011719,-0.109375,-0.089844,-0.072266,0.027344,0.107422
66640.0,-9.742188,-0.335938,-0.386719,0.011719,-0.046875,-0.160156,-0.064453,0.021484,0.111328
66655.0,-9.742188,-0.179688,-0.5,0.011719,-0.023438,-0.160156,-0.070312,0.005859,0.119141
66679.0,-9.664062,-0.066406,-0.539062,0.089844,0.136719,-0.226562,-0.109375,-0.007812,0.115234
66695.0,-9.625,-0.066406,-0.617188,0.128906,0.128906,-0.226562,-0.183594,-0.033203,0.105469
66719.0,-9.625,-0.179688,-0.617188,0.128906,-0.023438,-0.3125,-0.263672,-0.060547,0.095703
66735.0,-9.667969,-0.21875,-0.539062,0.128906,-0.03125,-0.28125,-0.337891,-0.087891,0.085938
66759.0,-9.78125,-0.296875,-0.5,-0.027344,-0.179688,-0.226562,-0.380859,-0.105469,0.068359
66775.0,-9.859375,-0.335938,-0.464844,-0.101562,-0.1875,-0.234375,-0.404297,-0.115234,0.052734
66799.0,-10.050781,-0.449219,-0.425781,-0.292969,-0.355469,-0.199219,-0.433594,-0.136719,0.027344
66816.0,-10.433594,-0.449219,-0.273438,-0.4375,-0.355469,-0.136719,-0.478516,-0.162109,-0.015625
66830.0,-10.628906,-0.375,-0.234375,-0.976562,-0.210938,-0.007812,-0.529297,-0.162109,-0.035156
66846.0,-10.585938,-0.257812,-0.042969,-0.9375,-0.164062,0.0625,-0.601562,-0.132812,-0.029297
66868.0,-10.359375,-0.449219,0.226562,-0.59375,-0.347656,0.375,-0.607422,-0.117188,-0.011719
66879.0,-10.390625,-0.449219,0.265625,-0.628906,-0.355469,0.40625,-0.542969,-0.113281,0.009766
66896.0,-10.546875,-0.449219,0.265625,-0.667969,-0.355469,0.390625,-0.445312,-0.126953,0.023438
66916.0,-10.664062,-0.257812,0.300781,-0.9375,-0.25,0.367188,-0.375,-0.132812,0.054688
66936.0,-10.429688,-0.105469,0.300781,-0.898438,-0.171875,0.386719,-0.324219,-0.113281,0.101562
66956.0,-9.820312,-0.105469,0.300781,-0.210938,-0.003906,0.355469,-0.277344,-0.101562,0.138672
66976.0,-9.519531,-0.066406,0.300781,-0.054688,-0.058594,0.347656,-0.222656,-0.109375,0.166016
66996.0,-9.398438,-0.066406,0.226562,0.371094,-0.027344,0.28125,-0.154297,-0.140625,0.173828
67021.0,-9.398438,-0.066406,0.035156,0.371094,-0.113281,0.003906,-0.078125,-0.181641,0.169922
67060.0,-9.597656,0.085938,-0.082031,0.179688,-0.015625,-0.191406,-0.089844,-0.203125,0.119141
67076.0,-9.667969,0.316406,-0.042969,0.144531,0.09375,-0.207031,-0.15625,-0.177734,0.044922
67106.0,-9.703125,0.621094,0.074219,0.066406,0.46875,-0.105469,-0.257812,-0.185547,0.0
67126.0,-9.703125,0.699219,0.226562,0.027344,0.542969,-0.03125,-0.322266,-0.199219,-0.015625
67146.0,-9.667969,0.699219,0.265625,0.066406,0.582031,0.007812,-0.349609,-0.203125,-0.011719
67166.0,-9.664062,0.660156,0.300781,0.105469,0.550781,0.003906,-0.347656,-0.203125,0.0
67187.0,-9.703125,0.546875,0.417969,0.066406,0.4375,0.082031,-0.310547,-0.201172,0.03125
67210.0,-9.707031,0.507812,0.496094,0.058594,0.390625,0.097656,-0.287109,-0.197266,0.046875
67237.0,-9.628906,0.546875,0.53125,0.105469,0.382812,0.09375,-0.203125,-0.177734,0.089844
67251.0,-9.59375,0.546875,0.53125,0.257812,0.40625,0.054688,-0.193359,-0.175781,0.101562
67266.0,-9.476562,0.546875,0.53125,0.257812,0.4375,0.117188,-0.197266,-0.15625,0.123047
67291.0,-9.4375,0.546875,0.53125,0.328125,0.351562,0.0,-0.175781,-0.150391,0.154297
67307.0,-9.519531,0.585938,0.339844,0.289062,0.375,-0.089844,-0.189453,-0.132812,0.240234
67330.0,-9.480469,0.546875,0.339844,0.289062,0.257812,-0.246094,-0.3125,-0.167969,0.460938
67346.0,-9.402344,0.851562,0.417969,0.394531,0.277344,-0.269531,-0.306641,-0.201172,0.611328
67370.0,-9.203125,2.882812,0.761719,0.542969,2.375,0.089844,-0.263672,-0.123047,0.482422
67387.0,-9.625,2.578125,0.496094,0.304688,2.289062,0.007812,-0.490234,-0.113281,0.388672
67409.0,-9.863281,1.542969,0.417969,-0.125,0.886719,-0.300781,-0.609375,-0.132812,0.359375
67441.0,-9.785156,1.160156,0.761719,-0.058594,0.425781,-0.003906,-0.560547,-0.107422,0.287109
67457.0,-9.625,1.199219,0.722656,-0.066406,0.433594,-0.050781,-0.443359,-0.097656,0.228516
67481.0,-9.359375,1.160156,0.992188,0.347656,0.339844,0.171875,-0.417969,-0.097656,0.169922
67496.0,-9.320312,1.082031,1.070312,0.386719,0.292969,0.195312,-0.410156,-0.097656,0.115234
67521.0,-9.324219,1.082031,1.144531,0.378906,0.230469,0.277344,-0.378906,-0.083984,0.076172
67537.0,-9.476562,1.160156,1.261719,0.265625,0.222656,0.308594,-0.335938,-0.041016,0.03125
67561.0,-9.59375,1.199219,1.453125,0.109375,0.339844,0.554688,-0.3125,0.007812,-0.007812
67577.0,-9.628906,1.160156,1.566406,0.109375,0.292969,0.59375,-0.259766,0.064453,-0.039062
67600.0,-9.703125,1.082031,1.644531,-0.003906,0.238281,0.761719,-0.1875,0.089844,-0.046875
67617.0,-9.746094,1.121094,1.605469,-0.003906,0.238281,0.761719,-0.130859,0.097656,-0.037109
67637.0,-9.628906,1.042969,1.605469,-0.003906,0.246094,0.777344,-0.083984,0.091797,-0.021484
67658.0,-9.558594,1.007812,1.605469,0.109375,0.171875,0.761719,-0.013672,0.105469,-0.015625
67672.0,-9.476562,0.96875,1.605469,0.265625,0.132812,0.699219,0.023438,0.105469,-0.021484
67687.0,-9.398438,1.007812,1.492188,0.265625,0.132812,0.707031,0.097656,0.121094,-0.0625
67711.0,-9.324219,1.042969,1.335938,0.386719,0.222656,0.546875,0.148438,0.148438,-0.111328
67727.0,-9.359375,1.121094,1.335938,0.347656,0.238281,0.53125,0.167969,0.207031,-0.140625
67750.0,-9.59375,1.121094,1.261719,0.125,0.339844,0.558594,0.162109,0.232422,-0.152344
67790.0,-9.625,0.585938,1.414062,0.097656,-0.125,0.789062,-0.017578,0.189453,-0.193359
67822.0,-9.703125,0.203125,1.527344,0.027344,-0.4375,0.933594,0.089844,0.095703,-0.251953
67862.0,-9.785156,0.203125,1.566406,-0.050781,-0.359375,1.003906,0.443359,0.033203,-0.224609
67877.0,-9.746094,0.355469,1.527344,-0.050781,-0.269531,1.003906,0.570312,0.009766,-0.201172
67901.0,-9.785156,0.429688,1.527344,-0.050781,-0.070312,0.964844,0.601562,-0.015625,-0.199219
67918.0,-9.824219,0.394531,1.492188,-0.078125,-0.089844,0.964844,0.576172,-0.050781,-0.189453
67941.0,-9.78125,0.238281,1.527344,-0.050781,-0.199219,0.949219,0.574219,-0.064453,-0.166016
67958.0,-9.785156,0.164062,1.566406,-0.050781,-0.226562,0.949219,0.599609,-0.060547,-0.152344
67987.0,-9.628906,-0.027344,1.605469,0.066406,-0.425781,0.972656,0.689453,-0.023438,-0.126953
68021.0,-9.476562,-0.144531,1.566406,0.265625,-0.511719,0.964844,0.783203,0.017578,-0.101562
68038.0,-9.398438,-0.179688,1.566406,0.304688,-0.546875,1.011719,0.845703,0.046875,-0.078125
68053.0,-9.359375,-0.144531,1.527344,0.417969,-0.546875,0.941406,0.871094,0.058594,-0.078125
68068.0,-9.28125,-0.144531,1.453125,0.457031,-0.539062,0.914062,0.931641,0.076172,-0.089844
68091.0,-9.320312,-0.066406,1.453125,0.417969,-0.417969,0.898438,0.992188,0.089844,-0.103516
68107.0,-9.324219,-0.027344,1.414062,0.417969,-0.410156,0.875,1.019531,0.09375,-0.125
68131.0,-9.246094,-0.066406,1.335938,0.496094,-0.386719,0.820312,1.033203,0.089844,-0.144531
68147.0,-9.246094,-0.105469,1.335938,0.496094,-0.378906,0.835938,1.041016,0.087891,-0.169922
68172.0,-9.171875,-0.144531,1.335938,0.570312,-0.425781,0.859375,1.070312,0.097656,-0.197266
68188.0,-9.207031,-0.105469,1.335938,0.570312,-0.371094,0.867188,1.087891,0.105469,-0.234375
68212.0,-9.441406,-0.179688,1.222656,0.304688,-0.390625,0.785156,1.087891,0.097656,-0.263672
68228.0,-9.664062,-0.296875,1.222656,0.1875,-0.414062,0.832031,1.097656,0.078125,-0.271484
68241.0,-9.820312,-0.375,1.222656,-0.308594,-0.550781,0.808594,1.125,0.078125,-0.277344
68258.0,-10.550781,-0.640625,1.105469,-0.5,-0.613281,0.730469,1.228516,0.064453,-0.304688
68282.0,-11.507812,-1.0625,0.648438,-1.765625,-1.101562,0.25,1.291016,0.042969,-0.332031
68298.0,-11.695312,-0.984375,0.457031,-1.917969,-1.078125,0.125,1.513672,0.0,-0.320312
68322.0,-10.96875,-0.335938,0.265625,-1.230469,-0.28125,-0.148438,1.605469,0.03125,-0.240234
68339.0,-10.429688,0.011719,0.265625,-0.921875,-0.074219,-0.148438,1.572266,0.058594,-0.195312
68360.0,-10.128906,0.011719,0.265625,-0.378906,0.113281,-0.148438,1.509766,0.054688,-0.189453
68381.0,-10.046875,-0.296875,0.300781,-0.300781,-0.171875,-0.113281,1.296875,-0.017578,-0.146484
68402.0,-9.976562,-1.0625,0.339844,-0.226562,-0.921875,-0.089844,1.253906,-0.060547,-0.111328
68419.0,-10.011719,-1.40625,0.265625,-0.234375,-1.105469,-0.171875,1.417969,-0.052734,-0.074219
68438.0,-10.089844,-1.523438,0.148438,-0.300781,-1.375,-0.234375,1.681641,-0.009766,-0.009766
68459.0,-9.976562,-1.40625,-0.082031,-0.261719,-1.34375,-0.433594,1.900391,0.025391,0.0625
68473.0,-9.9375,-1.332031,-0.234375,-0.070312,-1.105469,-0.785156,1.980469,0.037109,0.087891
68511.0,-9.246094,-0.640625,-0.886719,0.503906,-0.617188,-1.355469,2.119141,0.039062,0.123047
68522.0,-9.132812,-0.527344,-0.960938,0.617188,-0.519531,-1.429688,2.066406,0.003906,0.111328
68552.0,-9.203125,-0.144531,-1.191406,0.550781,-0.191406,-1.667969,1.919922,-0.041016,0.083984
68568.0,-9.359375,-0.105469,-1.152344,0.511719,-0.167969,-1.675781,1.650391,-0.113281,0.023438
68592.0,-9.515625,-0.335938,-1.230469,0.242188,-0.421875,-1.746094,1.537109,-0.134766,-0.021484
68609.0,-9.625,-0.375,-1.230469,0.164062,-0.460938,-1.714844,1.492188,-0.128906,-0.056641
68624.0,-9.59375,-0.335938,-1.269531,0.15625,-0.3125,-1.816406,1.480469,-0.117188,-0.068359
68641.0,-9.4375,-0.179688,-1.191406,0.3125,-0.273438,-1.761719,1.451172,-0.107422,-0.066406
68663.0,-9.363281,-0.179688,-1.191406,0.386719,-0.28125,-1.777344,1.398438,-0.123047,-0.074219
68679.0,-9.4375,-0.144531,-1.113281,0.347656,-0.246094,-1.746094,1.292969,-0.146484,-0.099609
68703.0,-9.558594,-0.144531,-1.039062,0.195312,-0.230469,-1.671875,1.126953,-0.162109,-0.111328
68719.0,-9.625,-0.21875,-0.921875,0.148438,-0.257812,-1.648438,0.962891,-0.150391,-0.113281
68742.0,-9.625,-0.410156,-0.691406,0.113281,-0.472656,-1.371094,0.835938,-0.125,-0.138672
68759.0,-9.628906,-0.601562,-0.5,0.148438,-0.542969,-1.3125,0.777344,-0.083984,-0.173828
68783.0,-9.707031,-0.910156,-0.425781,0.027344,-0.925781,-1.128906,0.830078,-0.029297,-0.189453
68799.0,-9.78125,-1.101562,-0.464844,-0.011719,-0.984375,-1.082031,0.957031,0.025391,-0.166016
68822.0,-9.820312,-1.253906,-0.539062,-0.078125,-1.222656,-1.21875,1.097656,0.0625,-0.119141
68840.0,-9.785156,-1.292969,-0.578125,-0.050781,-1.261719,-1.242188,1.169922,0.076172,-0.095703
68859.0,-9.707031,-1.214844,-0.769531,-0.003906,-1.175781,-1.339844,1.353516,0.111328,-0.050781
68879.0,-9.703125,-1.140625,-0.808594,0.035156,-1.144531,-1.394531,1.427734,0.117188,-0.041016
68894.0,-9.707031,-1.101562,-0.808594,0.027344,-1.039062,-1.371094,1.431641,0.115234,-0.041016
68909.0,-9.785156,-0.949219,-0.730469,-0.003906,-0.992188,-1.316406,1.390625,0.126953,-0.056641
68932.0,-9.9375,-0.984375,-0.691406,-0.195312,-0.953125,-1.230469,1.359375,0.136719,-0.074219
68949.0,-9.898438,-1.0625,-0.730469,-0.15625,-0.984375,-1.207031,1.306641,0.181641,-0.105469
68973.0,-9.898438,-1.292969,-0.730469,-0.148438,-1.238281,-1.191406,1.335938,0.21875,-0.113281
68992.0,-9.9375,-1.367188,-0.730469,-0.195312,-1.304688,-1.160156,1.423828,0.234375,-0.097656
69020.0,-10.085938,-1.367188,-0.960938,-0.339844,-1.328125,-1.320312,1.595703,0.240234,-0.033203
69044.0,-10.128906,-1.292969,-1.078125,-0.410156,-1.082031,-1.441406,1.707031,0.240234,-0.017578
69059.0,-10.285156,-0.949219,-1.304688,-0.484375,-0.976562,-1.488281,1.796875,0.224609,-0.019531
69087.0,-10.390625,-0.527344,-1.460938,-0.636719,-0.425781,-1.648438,1.794922,0.1875,-0.035156
69111.0,-10.472656,-0.296875,-1.574219,-0.714844,-0.1875,-1.730469,1.611328,0.085938,-0.087891
69129.0,-10.429688,-0.144531,-1.6875,-0.683594,-0.054688,-1.820312,1.445312,0.019531,-0.107422
69150.0,-10.359375,-0.105469,-1.6875,-0.683594,-0.003906,-1.8125,1.294922,-0.021484,-0.136719
69170.0,-10.203125,-0.066406,-1.652344,-0.515625,0.082031,-1.785156,1.15625,-0.0625,-0.158203
69203.0,-9.859375,0.046875,-1.535156,-0.09375,0.296875,-1.691406,1.015625,-0.099609,-0.154297
69220.0,-9.664062,0.085938,-1.421875,-0.027344,0.351562,-1.667969,0.800781,-0.162109,-0.142578
69235.0,-9.554688,0.085938,-1.421875,0.28125,0.351562,-1.578125,0.707031,-0.185547,-0.138672
69262.0,-9.285156,-0.179688,-1.304688,0.472656,0.171875,-1.554688,0.431641,-0.253906,-0.113281
69290.0,-9.28125,-0.679688,-1.113281,0.472656,-0.199219,-1.496094,0.251953,-0.3125,-0.070312
69314.0,-9.441406,-0.984375,-0.960938,0.3125,-0.585938,-1.34375,0.183594,-0.330078,-0.0625
69330.0,-9.59375,-1.101562,-0.808594,0.273438,-0.65625,-1.300781,0.152344,-0.328125,-0.070312
69354.0,-9.898438,-1.175781,-0.5,-0.15625,-0.738281,-0.992188,0.097656,-0.314453,-0.097656
69370.0,-10.089844,-1.253906,-0.273438,-0.269531,-0.761719,-0.910156,0.029297,-0.277344,-0.128906
69393.0,-10.28125,-1.214844,0.148438,-0.546875,-0.714844,-0.4375,-0.001953,-0.214844,-0.162109
69410.0,-10.320312,-1.140625,0.300781,-0.585938,-0.652344,-0.335938,0.001953,-0.117188,-0.181641
69425.0,-10.246094,-1.0625,0.417969,-0.433594,-0.386719,-0.152344,0.052734,-0.050781,-0.183594
69465.0,-9.285156,-0.144531,0.496094,0.457031,0.480469,-0.089844,0.417969,0.078125,-0.107422
69481.0,-9.132812,0.085938,0.417969,0.5625,0.652344,-0.121094,0.457031,0.027344,-0.056641
69502.0,-9.136719,0.046875,0.378906,0.609375,0.703125,-0.199219,0.414062,-0.005859,-0.019531
69544.0,-9.28125,0.046875,0.6875,0.457031,0.664062,0.132812,0.205078,0.123047,0.130859
69561.0,-9.28125,0.046875,0.6875,0.457031,0.648438,0.148438,0.171875,0.193359,0.121094
69584.0,-9.171875,-0.066406,0.570312,0.578125,0.503906,0.09375,0.193359,0.222656,0.099609
69601.0,-9.242188,0.011719,0.457031,0.578125,0.535156,0.078125,0.255859,0.271484,0.072266
69624.0,-9.625,0.046875,0.339844,0.121094,0.59375,-0.027344,0.3125,0.302734,0.023438
69641.0,-9.863281,0.203125,0.378906,0.042969,0.671875,0.003906,0.253906,0.326172,-0.068359
69671.0,-10.050781,0.277344,0.53125,-0.300781,0.933594,0.296875,-0.029297,0.363281,-0.248047
69694.0,-10.085938,-0.066406,0.839844,-0.347656,0.589844,0.714844,-0.148438,0.34375,-0.289062
69710.0,-10.128906,-0.21875,1.105469,-0.347656,0.507812,0.859375,-0.117188,0.308594,-0.269531
69734.0,-10.507812,-0.257812,1.335938,-0.777344,0.507812,1.34375,0.056641,0.242188,-0.238281
69751.0,-10.628906,-0.296875,1.335938,-0.855469,0.53125,1.367188,0.302734,0.150391,-0.195312
69774.0,-10.628906,-0.449219,1.335938,-0.890625,0.394531,1.398438,0.519531,0.046875,-0.128906
69790.0,-10.546875,-0.410156,1.261719,-0.863281,0.410156,1.390625,0.658203,-0.039062,-0.052734
69814.0,-10.363281,-0.21875,1.222656,-0.625,0.648438,1.246094,0.683594,-0.078125,-0.025391
69831.0,-10.125,-0.21875,1.183594,-0.546875,0.6875,1.191406,0.646484,-0.183594,0.009766
69851.0,-9.9375,-0.488281,1.296875,-0.242188,0.417969,1.222656,0.585938,-0.279297,-0.017578
69871.0,-9.742188,-0.488281,1.527344,-0.085938,0.378906,1.304688,0.626953,-0.335938,-0.042969
69886.0,-9.707031,-0.527344,1.605469,0.105469,0.273438,1.464844,0.648438,-0.355469,-0.054688
69901.0,-9.597656,-0.792969,1.71875,0.140625,0.203125,1.492188,0.705078,-0.347656,-0.0625
69919.0,-9.398438,-1.023438,1.796875,0.140625,0.089844,1.453125,0.759766,-0.324219,-0.050781
69941.0,-9.320312,-1.367188,1.875,0.480469,-0.410156,1.460938,0.978516,-0.210938,0.019531
69965.0,-9.324219,-1.332031,1.835938,0.402344,-0.464844,1.367188,1.119141,-0.179688,0.087891
69981.0,-9.28125,-1.292969,1.71875,0.402344,-0.449219,1.296875,1.214844,-0.152344,0.140625
70005.0,-9.136719,-1.367188,1.566406,0.59375,-0.578125,0.988281,1.324219,-0.111328,0.171875
70022.0,-9.175781,-1.367188,1.414062,0.5625,-0.609375,0.890625,1.419922,-0.056641,0.195312
70037.0,-9.175781,-1.367188,1.335938,0.601562,-0.671875,0.703125,1.46875,-0.023438,0.208984
70062.0,-9.175781,-1.214844,1.105469,0.5625,-0.652344,0.527344,1.521484,0.064453,0.205078
70076.0,-9.175781,-1.175781,1.03125,0.609375,-0.589844,0.328125,1.513672,0.085938,0.1875
70093.0,-9.136719,-1.101562,0.953125,0.609375,-0.546875,0.28125,1.542969,0.136719,0.150391
70115.0,-9.09375,-0.71875,0.761719,0.65625,-0.234375,0.113281,1.554688,0.185547,0.111328
70131.0,-9.246094,-0.566406,0.609375,0.617188,-0.132812,0.007812,1.595703,0.220703,0.037109
70155.0,-9.703125,-0.449219,0.339844,0.042969,-0.019531,-0.269531,1.632812,0.228516,-0.042969
70172.0,-10.011719,-0.296875,0.265625,-0.148438,0.046875,-0.285156,1.642578,0.212891,-0.101562
70195.0,-10.207031,0.011719,0.148438,-0.453125,0.441406,-0.414062,1.628906,0.191406,-0.125
70215.0,-10.164062,0.085938,0.148438,-0.417969,0.515625,-0.398438,1.603516,0.1875,-0.138672
70242.0,-10.046875,0.738281,0.1875,-0.261719,1.066406,-0.367188,1.480469,0.1875,-0.136719
70266.0,-10.164062,0.621094,0.074219,-0.417969,1.089844,-0.417969,1.302734,0.150391,-0.126953
70281.0,-10.085938,0.203125,0.074219,-0.417969,0.898438,-0.449219,1.212891,0.121094,-0.085938
70305.0,-10.085938,-0.335938,0.074219,-0.339844,0.132812,-0.394531,1.195312,0.097656,-0.050781
70322.0,-10.164062,-0.527344,-0.003906,-0.378906,0.019531,-0.464844,1.21875,0.066406,-0.033203
70345.0,-10.164062,-0.832031,-0.042969,-0.417969,-0.371094,-0.511719,1.257812,0.019531,-0.005859
70386.0,-9.746094,-0.910156,-0.117188,0.003906,-0.488281,-0.617188,1.378906,-0.068359,0.029297
70403.0,-9.597656,-0.949219,-0.15625,0.082031,-0.503906,-0.671875,1.394531,-0.138672,0.035156
70425.0,-9.480469,-1.023438,-0.234375,0.273438,-0.648438,-0.8125,1.417969,-0.173828,0.037109
70442.0,-9.59375,-1.0625,-0.308594,0.203125,-0.695312,-0.875,1.492188,-0.255859,0.003906
70456.0,-9.664062,-1.101562,-0.347656,0.042969,-0.757812,-0.972656,1.519531,-0.277344,-0.007812
70472.0,-9.707031,-1.0625,-0.308594,0.042969,-0.726562,-1.003906,1.527344,-0.302734,-0.033203
70485.0,-9.628906,-1.0625,-0.273438,0.113281,-0.742188,-1.03125,1.513672,-0.302734,-0.044922
70512.0,-9.402344,-1.140625,-0.195312,0.226562,-0.789062,-1.0625,1.501953,-0.267578,-0.052734
70535.0,-9.136719,-1.175781,-0.15625,0.59375,-0.894531,-1.070312,1.513672,-0.240234,-0.042969
70575.0,-8.863281,-1.101562,-0.273438,0.863281,-0.875,-1.25,1.5625,-0.109375,0.027344
70592.0,-8.976562,-1.0625,-0.308594,0.785156,-0.859375,-1.292969,1.574219,-0.027344,0.072266
70605.0,-9.09375,-1.023438,-0.386719,0.625,-0.851562,-1.378906,1.574219,-0.005859,0.076172
70646.0,-10.472656,-0.910156,-1.113281,-0.761719,-0.816406,-2.097656,1.542969,0.017578,0.005859
70662.0,-10.746094,-0.910156,-1.34375,-0.953125,-0.824219,-2.222656,1.480469,-0.052734,-0.125
70686.0,-10.550781,-0.566406,-1.382812,-0.832031,-0.488281,-2.390625,1.335938,-0.125,-0.138672
70703.0,-10.433594,-0.179688,-1.039062,-0.753906,-0.324219,-2.207031,1.113281,-0.0625,-0.128906
70726.0,-10.363281,0.046875,-0.921875,-0.648438,0.140625,-1.9375,0.960938,0.03125,-0.130859
70743.0,-10.394531,0.203125,-0.921875,-0.648438,0.226562,-1.929688,0.873047,0.099609,-0.177734
70760.0,-10.433594,0.507812,-0.847656,-0.683594,0.3125,-1.921875,0.820312,0.115234,-0.195312
70783.0,-10.128906,0.777344,-0.65625,-0.53125,0.847656,-1.644531,0.632812,0.144531,-0.167969
70806.0,-9.941406,0.699219,-0.539062,-0.210938,0.886719,-1.453125,0.539062,0.125,-0.146484
70823.0,-9.824219,0.46875,-0.464844,-0.21875,0.78125,-1.390625,0.458984,0.107422,-0.113281
70839.0,-9.746094,0.394531,-0.425781,0.097656,0.527344,-1.253906,0.421875,0.111328,-0.099609
70863.0,-9.480469,0.164062,-0.347656,0.296875,0.429688,-1.183594,0.304688,0.121094,-0.056641
70878.0,-9.402344,0.125,-0.308594,0.257812,0.3125,-1.113281,0.269531,0.115234,-0.052734
70916.0,-9.9375,-0.21875,-0.308594,-0.210938,0.03125,-1.066406,0.195312,0.070312,-0.087891
70933.0,-10.050781,-0.296875,-0.308594,-0.25,-0.039062,-1.058594,0.142578,0.066406,-0.138672
70957.0,-10.128906,-0.375,-0.234375,-0.394531,-0.078125,-0.953125,0.080078,0.044922,-0.191406
70973.0,-10.128906,-0.335938,-0.15625,-0.394531,-0.046875,-0.90625,0.009766,0.041016,-0.234375
70996.0,-10.164062,-0.335938,-0.003906,-0.433594,0.054688,-0.691406,-0.039062,0.048828,-0.255859
71013.0,-10.050781,-0.410156,0.074219,-0.347656,0.09375,-0.5625,-0.15625,0.111328,-0.285156
71034.0,-9.78125,-0.566406,0.226562,-0.164062,0.003906,-0.414062,-0.173828,0.154297,-0.265625
71053.0,-9.664062,-0.488281,0.265625,-0.050781,-0.058594,-0.398438,-0.167969,0.173828,-0.214844
71067.0,-9.664062,-0.488281,0.265625,0.066406,0.136719,-0.289062,-0.150391,0.183594,-0.189453
71088.0,-9.78125,-0.375,0.265625,0.035156,0.191406,-0.265625,-0.115234,0.169922,-0.138672
71114.0,-10.011719,-0.410156,0.226562,-0.269531,0.191406,-0.25,-0.125,0.105469,-0.056641
71145.0,-9.941406,-0.257812,0.300781,-0.195312,0.398438,-0.113281,-0.134766,0.082031,0.011719
71177.0,-10.050781,-0.21875,0.609375,-0.308594,0.429688,0.226562,-0.207031,0.076172,0.058594
71194.0,-10.164062,-0.144531,0.800781,-0.378906,0.460938,0.3125,-0.308594,0.134766,0.046875
71226.0,-10.128906,-0.375,0.878906,-0.378906,0.25,0.582031,-0.322266,0.152344,0.041016
71256.0,-9.554688,-0.488281,0.914062,0.195312,0.113281,0.679688,-0.244141,0.144531,0.083984
71273.0,-9.285156,-0.601562,0.839844,0.355469,0.066406,0.660156,-0.03125,0.111328,0.162109
71298.0,-9.015625,-0.757812,0.648438,0.742188,-0.21875,0.46875,0.126953,0.066406,0.214844
71313.0,-9.019531,-0.640625,0.53125,0.785156,-0.203125,0.46875,0.267578,0.041016,0.232422
71337.0,-9.203125,-0.410156,0.300781,0.558594,0.042969,0.136719,0.314453,-0.003906,0.230469
71354.0,-9.359375,-0.335938,0.265625,0.519531,0.054688,0.101562,0.269531,-0.041016,0.193359
71377.0,-9.597656,-0.335938,0.265625,0.179688,0.03125,0.085938,0.193359,-0.064453,0.138672
71416.0,-9.742188,-0.488281,0.265625,0.019531,-0.144531,0.0625,0.0625,-0.076172,0.03125
71434.0,-9.820312,-0.679688,0.265625,0.027344,-0.214844,0.054688,0.029297,-0.074219,-0.056641
71448.0,-9.941406,-0.792969,0.300781,-0.402344,-0.550781,0.074219,0.068359,-0.082031,-0.09375
71464.0,-10.664062,-1.175781,0.722656,-0.707031,-0.695312,0.152344,0.183594,-0.160156,-0.162109
71488.0,-10.585938,-1.023438,0.761719,-0.832031,-0.609375,0.480469,0.386719,-0.263672,-0.189453
71504.0,-10.507812,-0.871094,0.648438,-0.792969,-0.554688,0.375,0.677734,-0.337891,-0.189453
71527.0,-9.941406,-0.027344,0.648438,-0.179688,0.441406,0.226562,0.949219,-0.345703,-0.068359
71544.0,-9.703125,0.429688,0.457031,-0.027344,0.679688,0.15625,1.107422,-0.318359,0.015625
71568.0,-9.558594,0.738281,0.226562,0.203125,1.191406,-0.328125,0.982422,-0.277344,0.046875
71584.0,-9.402344,0.851562,0.035156,0.273438,1.257812,-0.4375,0.615234,-0.234375,0.0625
71607.0,-9.015625,0.738281,-0.082031,0.734375,1.152344,-0.738281,0.248047,-0.142578,0.064453
71638.0,-8.941406,0.203125,-0.082031,0.808594,0.601562,-0.769531,0.005859,-0.087891,0.013672
71655.0,-9.015625,0.085938,-0.003906,0.769531,0.5625,-0.769531,-0.171875,-0.082031,-0.076172
71678.0,-9.363281,-0.144531,0.226562,0.378906,0.285156,-0.476562,-0.230469,-0.070312,-0.107422
71694.0,-9.558594,-0.296875,0.265625,0.304688,0.226562,-0.445312,-0.271484,-0.048828,-0.142578
71717.0,-9.902344,-0.757812,0.378906,-0.15625,-0.265625,-0.339844,-0.292969,-0.042969,-0.175781
71757.0,-9.898438,-1.023438,0.839844,-0.164062,-0.429688,0.144531,-0.283203,0.058594,-0.261719
71774.0,-9.941406,-1.0625,1.03125,-0.164062,-0.4375,0.304688,-0.15625,0.097656,-0.300781
71797.0,-9.976562,-1.253906,1.105469,-0.25,-0.542969,0.464844,0.021484,0.111328,-0.283203
71829.0,-9.976562,-1.253906,1.105469,-0.25,-0.433594,0.453125,0.378906,0.117188,-0.234375
71845.0,-9.9375,-1.023438,0.953125,-0.25,-0.296875,0.390625,0.591797,0.087891,-0.181641
71866.0,-9.902344,-0.71875,0.6875,-0.179688,0.117188,0.085938,0.671875,0.066406,-0.152344
71908.0,-9.863281,-0.296875,0.265625,-0.140625,0.546875,-0.34375,0.845703,0.017578,-0.025391
71925.0,-9.898438,-0.066406,0.1875,-0.179688,0.699219,-0.390625,0.794922,0.0,0.0
71948.0,-9.859375,0.277344,-0.003906,-0.140625,1.097656,-0.636719,0.662109,-0.013672,0.003906
71964.0,-9.78125,0.429688,-0.117188,-0.066406,1.167969,-0.683594,0.46875,-0.035156,0.001953
71988.0,-9.664062,0.394531,-0.082031,0.050781,1.199219,-0.738281,0.253906,-0.044922,-0.003906
72005.0,-9.625,0.277344,-0.082031,0.089844,1.160156,-0.773438,0.052734,-0.041016,-0.019531
72020.0,-9.625,0.238281,-0.082031,0.125,0.96875,-0.714844,-0.041016,-0.037109,-0.019531
72035.0,-9.628906,0.046875,0.109375,0.125,0.890625,-0.636719,-0.208984,-0.03125,-0.023438
72058.0,-9.664062,-0.179688,0.226562,0.050781,0.632812,-0.4375,-0.279297,-0.023438,-0.023438
72074.0,-9.703125,-0.410156,0.300781,0.011719,0.523438,-0.398438,-0.421875,-0.009766,-0.007812
72098.0,-9.746094,-0.757812,0.417969,-0.027344,0.0625,-0.230469,-0.433594,0.0,0.005859
72115.0,-9.78125,-0.984375,0.457031,-0.066406,-0.050781,-0.191406,-0.392578,0.003906,0.033203
72139.0,-9.863281,-1.0625,0.570312,-0.140625,-0.25,-0.0625,-0.337891,0.009766,0.0625
72155.0,-9.859375,-1.0625,0.53125,-0.140625,-0.25,-0.054688,-0.28125,0.017578,0.083984
72179.0,-9.742188,-1.0625,0.53125,-0.019531,-0.28125,-0.078125,-0.214844,0.037109,0.109375
72195.0,-9.480469,-0.949219,0.496094,0.132812,-0.25,-0.078125,-0.160156,0.058594,0.128906
72210.0,-9.363281,-0.910156,0.496094,0.480469,-0.082031,-0.128906,-0.140625,0.068359,0.142578
72226.0,-9.246094,-0.792969,0.339844,0.519531,-0.058594,-0.152344,-0.123047,0.080078,0.136719
72250.0,-9.324219,-0.757812,0.265625,0.410156,-0.0625,-0.28125,-0.103516,0.078125,0.123047
72265.0,-9.320312,-0.679688,0.265625,0.371094,-0.03125,-0.273438,-0.097656,0.091797,0.113281
72289.0,-9.246094,-0.488281,0.226562,0.488281,0.160156,-0.273438,-0.115234,0.109375,0.097656
72305.0,-9.246094,-0.566406,0.148438,0.488281,0.152344,-0.257812,-0.199219,0.125,0.039062
72329.0,-9.359375,-0.871094,0.148438,0.378906,-0.230469,-0.296875,-0.226562,0.130859,0.027344
72346.0,-9.59375,-0.984375,0.109375,0.265625,-0.351562,-0.320312,-0.208984,0.142578,0.039062
72369.0,-9.941406,-0.832031,0.109375,-0.195312,-0.214844,-0.273438,-0.195312,0.148438,0.052734
72385.0,-10.164062,-0.527344,0.074219,-0.316406,-0.0625,-0.257812,-0.181641,0.175781,0.037109
72408.0,-10.28125,-0.335938,0.148438,-0.546875,0.273438,-0.148438,-0.232422,0.173828,-0.015625
72426.0,-10.394531,-0.410156,0.148438,-0.625,0.273438,-0.132812,-0.318359,0.158203,-0.058594
72440.0,-10.507812,-0.527344,0.109375,-0.882812,-0.015625,-0.167969,-0.335938,0.152344,-0.070312
72455.0,-10.628906,-0.640625,0.074219,-0.929688,-0.046875,-0.160156,-0.328125,0.142578,-0.050781
72480.0,-10.167969,-0.257812,0.226562,-0.433594,0.382812,0.046875,-0.353516,0.136719,0.0
72495.0,-10.128906,-0.144531,0.226562,-0.339844,0.496094,0.109375,-0.396484,0.080078,0.011719
72519.0,-10.164062,-0.488281,0.300781,-0.417969,0.144531,0.167969,-0.453125,-0.009766,0.029297
72535.0,-10.164062,-0.566406,0.378906,-0.378906,0.023438,0.167969,-0.421875,-0.052734,0.015625
72559.0,-10.128906,-0.488281,0.378906,-0.378906,0.136719,0.238281,-0.328125,-0.050781,0.001953
72576.0,-10.242188,-0.71875,0.300781,-0.453125,0.023438,0.160156,-0.255859,-0.083984,0.027344
72599.0,-10.207031,-0.757812,0.1875,-0.453125,-0.140625,0.023438,-0.175781,-0.091797,0.060547
72616.0,-10.007812,-0.527344,0.148438,-0.378906,-0.070312,-0.015625,-0.164062,-0.089844,0.087891
72630.0,-9.941406,-0.375,0.148438,-0.035156,0.328125,-0.070312,-0.212891,-0.097656,0.091797
72645.0,-9.59375,-0.105469,0.074219,0.089844,0.433594,-0.113281,-0.375,-0.107422,0.09375
72670.0,-9.28125,-0.21875,0.109375,0.472656,0.34375,-0.101562,-0.537109,-0.097656,0.095703
72686.0,-9.097656,-0.335938,0.148438,0.585938,0.25,-0.109375,-0.65625,-0.091797,0.107422
72708.0,-9.019531,-0.527344,0.1875,0.742188,-0.011719,-0.046875,-0.695312,-0.095703,0.105469
72719.0,-9.054688,-0.679688,0.1875,0.703125,-0.171875,-0.046875,-0.738281,-0.113281,0.089844
72750.0,-9.359375,-1.023438,0.1875,0.394531,-0.53125,-0.078125,-0.707031,-0.119141,0.044922
72766.0,-9.402344,-1.101562,0.1875,0.394531,-0.570312,-0.085938,-0.673828,-0.103516,0.0
72789.0,-9.476562,-1.0625,0.226562,0.28125,-0.570312,-0.0625,-0.683594,-0.087891,-0.058594
72820.0,-9.59375,-1.023438,0.265625,0.164062,-0.492188,-0.03125,-0.707031,-0.072266,-0.119141
72836.0,-9.667969,-1.023438,0.300781,0.128906,-0.476562,0.003906,-0.716797,-0.023438,-0.179688
72859.0,-9.742188,-0.984375,0.378906,0.003906,-0.375,0.097656,-0.71875,-0.005859,-0.185547
72870.0,-9.78125,-0.984375,0.417969,-0.035156,-0.351562,0.136719,-0.703125,0.017578,-0.166016
72899.0,-9.78125,-0.984375,0.496094,-0.035156,-0.3125,0.238281,-0.662109,0.037109,-0.115234
72940.0,-9.9375,-0.871094,0.457031,-0.1875,-0.183594,0.246094,-0.46875,0.099609,0.035156
72956.0,-9.863281,-0.757812,0.339844,-0.148438,-0.144531,0.183594,-0.427734,0.095703,0.089844
72980.0,-9.820312,-0.679688,0.265625,-0.070312,-0.023438,0.109375,-0.423828,0.087891,0.134766
72996.0,-9.820312,-0.640625,0.265625,-0.070312,-0.03125,0.117188,-0.439453,0.09375,0.166016
73011.0,-9.820312,-0.679688,0.265625,-0.109375,-0.0625,0.101562,-0.449219,0.099609,0.171875
73026.0,-9.863281,-0.601562,0.1875,-0.148438,-0.039062,0.078125,-0.488281,0.111328,0.185547
73051.0,-9.824219,-0.488281,0.148438,-0.0625,0.058594,0.078125,-0.556641,0.113281,0.179688
73066.0,-9.824219,-0.449219,0.1875,-0.0625,0.042969,0.132812,-0.630859,0.103516,0.171875
73100.0,-9.59375,-0.640625,0.265625,0.171875,-0.179688,0.257812,-0.662109,0.105469,0.173828
73116.0,-9.554688,-0.792969,0.300781,0.210938,-0.273438,0.308594,-0.732422,0.107422,0.203125
73147.0,-9.824219,-1.175781,0.339844,0.058594,-0.578125,0.378906,-0.650391,0.123047,0.226562
73170.0,-9.902344,-1.175781,0.300781,-0.132812,-0.855469,0.394531,-0.523438,0.132812,0.242188
73187.0,-9.863281,-1.175781,0.300781,-0.09375,-0.878906,0.410156,-0.417969,0.130859,0.246094
73210.0,-9.820312,-1.140625,0.300781,-0.046875,-0.914062,0.449219,-0.332031,0.109375,0.232422
73227.0,-9.785156,-1.140625,0.265625,-0.046875,-0.972656,0.421875,-0.21875,0.107422,0.216797
73247.0,-9.863281,-1.023438,0.265625,-0.085938,-0.9375,0.445312,-0.099609,0.111328,0.189453
73267.0,-9.898438,-0.871094,0.265625,-0.085938,-0.875,0.453125,-0.013672,0.09375,0.15625
73281.0,-9.859375,-0.832031,0.265625,-0.085938,-0.738281,0.445312,0.019531,0.085938,0.136719
73297.0,-9.902344,-0.757812,0.1875,-0.085938,-0.707031,0.453125,0.105469,0.068359,0.103516
73320.0,-9.976562,-0.449219,0.109375,-0.203125,-0.386719,0.351562,0.193359,0.052734,0.083984
73337.0,-9.902344,-0.296875,0.109375,-0.164062,-0.28125,0.351562,0.222656,0.021484,0.046875
73360.0,-9.824219,-0.257812,0.074219,-0.046875,-0.203125,0.324219,0.208984,0.001953,0.035156
73377.0,-9.820312,-0.296875,0.074219,-0.046875,-0.242188,0.351562,0.224609,-0.033203,0.0
73401.0,-9.941406,-0.257812,0.074219,-0.164062,-0.195312,0.300781,0.296875,-0.054688,-0.001953
73418.0,-9.9375,-0.105469,0.074219,-0.164062,-0.117188,0.292969,0.339844,-0.099609,0.0
73432.0,-9.902344,-0.066406,0.074219,-0.125,0.074219,0.269531,0.349609,-0.125,-0.003906
73448.0,-9.902344,-0.066406,0.109375,-0.125,0.035156,0.289062,0.34375,-0.169922,0.001953
73469.0,-9.863281,-0.105469,0.148438,-0.085938,-0.035156,0.28125,0.345703,-0.185547,0.0
73511.0,-9.746094,-0.066406,0.109375,0.035156,0.019531,0.164062,0.359375,-0.203125,-0.039062
73528.0,-9.707031,-0.066406,0.148438,0.074219,0.027344,0.171875,0.339844,-0.21875,-0.046875
73551.0,-9.707031,-0.144531,0.1875,0.074219,-0.035156,0.140625,0.332031,-0.238281,-0.064453
73568.0,-9.664062,-0.179688,0.226562,0.113281,-0.019531,0.117188,0.333984,-0.234375,-0.085938
73591.0,-9.703125,-0.179688,0.226562,0.074219,-0.03125,0.085938,0.333984,-0.228516,-0.101562
73621.0,-9.78125,-0.21875,0.265625,-0.011719,-0.046875,0.054688,0.341797,-0.224609,-0.101562
73637.0,-9.78125,-0.144531,0.265625,-0.011719,-0.023438,0.03125,0.390625,-0.214844,-0.109375
73662.0,-9.746094,-0.066406,0.265625,0.027344,0.152344,-0.039062,0.40625,-0.208984,-0.117188
73677.0,-9.707031,0.011719,0.265625,0.027344,0.207031,-0.0625,0.376953,-0.210938,-0.117188
73700.0,-9.746094,0.011719,0.265625,0.027344,0.269531,-0.125,0.357422,-0.207031,-0.117188
73717.0,-9.746094,0.011719,0.265625,0.027344,0.320312,-0.148438,0.291016,-0.191406,-0.111328
73741.0,-9.742188,-0.027344,0.265625,0.019531,0.277344,-0.210938,0.244141,-0.171875,-0.103516
73757.0,-9.78125,-0.027344,0.265625,0.019531,0.285156,-0.226562,0.191406,-0.152344,-0.089844
73781.0,-9.820312,-0.066406,0.265625,-0.054688,0.269531,-0.273438,0.167969,-0.144531,-0.080078
73812.0,-9.863281,-0.105469,0.300781,-0.101562,0.207031,-0.269531,0.099609,-0.111328,-0.044922
73828.0,-9.902344,-0.179688,0.300781,-0.140625,0.171875,-0.285156,0.074219,-0.097656,-0.025391
73850.0,-9.9375,-0.257812,0.339844,-0.179688,0.101562,-0.277344,0.060547,-0.089844,-0.013672
73891.0,-9.976562,-0.410156,0.378906,-0.21875,-0.050781,-0.277344,0.015625,-0.076172,0.037109
73908.0,-9.9375,-0.410156,0.417969,-0.179688,-0.058594,-0.285156,0.017578,-0.066406,0.056641
73932.0,-9.667969,-0.410156,0.496094,0.089844,-0.074219,-0.183594,0.011719,-0.0625,0.091797
73948.0,-9.480469,-0.410156,0.53125,0.203125,-0.089844,-0.191406,0.011719,-0.046875,0.132812
73972.0,-9.402344,-0.449219,0.609375,0.355469,-0.167969,-0.09375,0.027344,-0.027344,0.169922
73988.0,-9.4375,-0.410156,0.496094,0.355469,-0.183594,-0.132812,0.087891,0.009766,0.189453
74009.0,-9.519531,-0.335938,0.339844,0.320312,-0.148438,-0.324219,0.207031,0.082031,0.210938
74028.0,-9.59375,-0.144531,0.339844,0.242188,-0.132812,-0.355469,0.398438,0.158203,0.246094
74043.0,-9.746094,0.238281,0.457031,-0.21875,0.945312,0.0,0.394531,0.181641,0.277344
74058.0,-10.207031,2.039062,0.609375,-0.363281,1.566406,0.089844,0.160156,0.193359,0.40625
74081.0,-10.207031,2.691406,0.339844,-0.4375,2.652344,-0.230469,0.019531,0.212891,0.53125
74092.0,-10.242188,2.730469,0.265625,-0.476562,2.605469,-0.28125,-0.244141,0.306641,0.791016
74108.0,-10.746094,3.113281,0.300781,-0.628906,2.671875,-0.25,-0.625,0.257812,1.121094
74128.0,-11.046875,2.730469,0.035156,-1.433594,2.8125,-0.25,-1.013672,0.0,1.353516
74151.0,-10.703125,1.273438,-0.425781,-0.96875,0.476562,-0.917969,-1.222656,-0.095703,1.269531
74179.0,-10.394531,-0.179688,-0.308594,-0.832031,-1.035156,-1.117188,-1.40625,-0.351562,0.826172
74193.0,-10.203125,-0.257812,0.300781,-0.347656,-1.375,-0.03125,-1.556641,-0.671875,0.597656
74209.0,-8.9375,-0.566406,0.914062,0.324219,-1.484375,0.027344,-1.474609,-0.626953,0.060547
74233.0,-9.097656,-1.40625,1.105469,0.578125,-2.554688,0.136719,-1.443359,-0.630859,-0.265625
74249.0,-8.820312,-1.867188,1.875,0.65625,-2.699219,0.28125,-1.255859,-0.880859,-0.552734
74271.0,-9.320312,-2.019531,2.5625,0.332031,-2.894531,1.203125,-0.865234,-1.162109,-0.904297
74311.0,-9.742188,-1.636719,2.5625,-0.144531,-2.050781,0.703125,-0.044922,-1.285156,-1.236328
74352.0,-10.28125,-1.253906,2.753906,-0.789062,-1.121094,0.355469,0.521484,-1.4375,-1.597656
74369.0,-10.285156,-0.832031,3.175781,-0.828125,-0.742188,0.523438,0.412109,-1.503906,-1.701172
74386.0,-10.433594,-0.566406,3.023438,-0.875,-0.410156,0.496094,0.345703,-1.513672,-1.75
74409.0,-10.128906,-1.367188,3.097656,-0.953125,-0.242188,-0.117188,0.328125,-1.423828,-1.824219
74430.0,-9.59375,-1.867188,3.671875,-0.859375,-0.578125,0.261719,0.361328,-1.351562,-1.902344
74449.0,-9.441406,-1.980469,3.636719,-0.554688,-0.484375,0.15625,0.480469,-1.277344,-1.912109
74479.0,-8.898438,-2.519531,3.902344,-0.328125,-0.496094,-0.125,0.625,-1.146484,-1.814453
74503.0,-8.519531,-2.554688,4.25,-0.050781,-0.171875,-0.085938,0.681641,-1.09375,-1.814453
74519.0,-8.371094,-2.402344,4.09375,0.085938,0.113281,-0.234375,0.677734,-0.990234,-1.757812
74543.0,-7.949219,-2.632812,4.132812,0.15625,0.21875,-0.601562,0.632812,-0.910156,-1.666016
74561.0,-7.828125,-2.632812,4.285156,0.179688,0.328125,-0.542969,0.693359,-0.75,-1.578125
74582.0,-7.40625,-2.75,4.363281,0.355469,0.476562,-0.707031,0.712891,-0.613281,-1.5
74600.0,-7.144531,-2.75,4.515625,0.425781,0.488281,-0.625,0.726562,-0.478516,-1.355469
74614.0,-7.21875,-2.785156,4.554688,0.445312,0.46875,-0.617188,0.716797,-0.433594,-1.310547
74652.0,-6.800781,-2.824219,4.667969,0.507812,0.816406,-0.785156,0.763672,-0.279297,-1.126953
74693.0,-6.484375,-2.902344,5.167969,0.636719,0.871094,-0.433594,0.611328,-0.044922,-0.845703
74732.0,-6.601562,-3.324219,5.4375,0.402344,0.527344,-0.242188,0.548828,0.03125,-0.708984
74764.0,-6.71875,-3.359375,5.589844,0.226562,0.539062,-0.136719,0.537109,0.101562,-0.621094
74780.0,-6.761719,-3.398438,5.664062,0.210938,0.515625,-0.175781,0.476562,0.132812,-0.560547
74803.0,-6.910156,-3.476562,5.703125,-0.027344,0.46875,-0.046875,0.462891,0.119141,-0.541016
74820.0,-6.871094,-3.550781,5.820312,-0.082031,0.410156,-0.023438,0.417969,0.109375,-0.521484
74842.0,-6.910156,-3.398438,5.855469,-0.082031,0.59375,0.066406,0.412109,0.132812,-0.5
74853.0,-6.800781,-3.324219,5.820312,0.015625,0.675781,0.023438,0.394531,0.136719,-0.455078
74883.0,-6.683594,-3.167969,5.78125,0.109375,0.839844,-0.03125,0.408203,0.148438,-0.380859
74923.0,-7.027344,-3.246094,5.742188,-0.246094,0.753906,-0.070312,0.318359,0.189453,-0.257812
74941.0,-7.289062,-3.398438,5.664062,-0.398438,0.714844,-0.148438,0.1875,0.191406,-0.230469
74963.0,-7.488281,-3.132812,5.894531,-0.703125,0.890625,0.105469,0.09375,0.175781,-0.236328
74980.0,-7.253906,-3.054688,6.011719,-0.589844,0.945312,0.144531,-0.207031,0.056641,-0.232422
74995.0,-7.105469,-3.167969,6.046875,-0.214844,0.6875,0.328125,-0.236328,0.029297,-0.201172
75010.0,-6.988281,-3.820312,6.085938,-0.222656,0.441406,0.296875,-0.148438,0.017578,-0.125
75034.0,-6.945312,-4.050781,6.011719,-0.199219,0.105469,0.277344,0.023438,0.035156,-0.050781
75055.0,-6.910156,-3.78125,5.855469,-0.191406,0.210938,0.199219,0.146484,0.056641,0.009766
75080.0,-6.800781,-3.132812,5.894531,-0.03125,0.957031,0.199219,0.019531,0.056641,0.027344
75100.0,-6.796875,-3.324219,5.894531,-0.03125,0.984375,0.167969,-0.134766,0.03125,0.027344
75120.0,-6.828125,-3.667969,5.972656,-0.089844,0.566406,0.183594,-0.175781,0.019531,0.03125
75131.0,-6.796875,-3.78125,5.933594,-0.042969,0.457031,0.269531,-0.152344,0.021484,0.037109
75152.0,-6.828125,-4.011719,5.855469,-0.042969,0.121094,0.175781,-0.123047,0.025391,0.041016
75184.0,-6.984375,-3.707031,5.855469,-0.183594,0.410156,0.183594,-0.005859,0.042969,0.058594
75200.0,-6.984375,-3.859375,5.894531,-0.175781,0.371094,0.183594,0.009766,0.046875,0.064453
75224.0,-6.832031,-3.859375,5.855469,-0.003906,0.234375,0.191406,0.021484,0.052734,0.064453
75241.0,-6.828125,-3.746094,5.855469,0.003906,0.304688,0.238281,0.060547,0.089844,0.085938
75263.0,-6.90625,-3.707031,5.855469,-0.050781,0.339844,0.207031,0.039062,0.089844,0.087891
75274.0,-6.871094,-3.78125,5.855469,-0.003906,0.257812,0.214844,-0.005859,0.103516,0.068359
75303.0,-6.796875,-3.707031,5.972656,0.09375,0.332031,0.355469,-0.052734,0.101562,0.039062
75320.0,-6.761719,-3.820312,5.972656,0.101562,0.257812,0.324219,-0.0625,0.087891,0.027344
75344.0,-6.832031,-3.9375,5.894531,0.082031,0.101562,0.308594,-0.021484,0.089844,0.013672
75360.0,-6.871094,-3.859375,5.855469,0.089844,0.140625,0.316406,0.029297,0.076172,0.0
75383.0,-6.90625,-3.667969,5.855469,0.019531,0.355469,0.285156,0.037109,0.058594,-0.005859
75415.0,-7.023438,-3.628906,5.820312,-0.097656,0.394531,0.257812,0.009766,0.029297,-0.03125
75431.0,-7.0625,-3.746094,5.78125,-0.132812,0.324219,0.21875,-0.001953,0.007812,-0.035156
75460.0,-7.101562,-3.628906,5.703125,-0.132812,0.402344,0.25,-0.003906,-0.007812,-0.019531
75480.0,-7.144531,-3.667969,5.742188,-0.164062,0.363281,0.171875,-0.033203,-0.013672,-0.007812
75501.0,-7.101562,-3.667969,5.703125,-0.210938,0.433594,0.132812,-0.056641,0.001953,0.007812
75521.0,-7.0625,-3.589844,5.78125,-0.164062,0.152344,-0.070312,-0.095703,-0.003906,0.03125
75542.0,-7.027344,-3.859375,5.820312,-0.125,-0.03125,-0.023438,-0.052734,-0.027344,0.070312
75574.0,-7.222656,-3.550781,5.78125,-0.265625,0.175781,-0.070312,0.03125,-0.068359,0.121094
75591.0,-7.222656,-3.359375,5.742188,-0.257812,0.234375,-0.070312,-0.015625,-0.089844,0.136719
75622.0,-7.144531,-3.628906,5.78125,-0.125,0.050781,-0.085938,-0.011719,-0.087891,0.162109
75644.0,-7.183594,-3.707031,5.78125,-0.1875,-0.066406,-0.09375,0.029297,-0.089844,0.166016
75661.0,-7.101562,-3.628906,5.703125,-0.140625,-0.089844,-0.140625,0.128906,-0.109375,0.183594
75684.0,-6.988281,-3.4375,5.664062,0.027344,0.117188,-0.242188,0.136719,-0.103516,0.181641
75724.0,-6.949219,-3.054688,5.703125,0.082031,0.4375,-0.1875,-0.078125,-0.054688,0.167969
75742.0,-7.0625,-3.132812,5.78125,0.011719,0.4375,-0.109375,-0.306641,-0.082031,0.158203
75764.0,-6.984375,-3.746094,5.820312,0.050781,-0.238281,-0.054688,-0.322266,-0.097656,0.150391
75795.0,-6.988281,-3.359375,6.011719,0.042969,0.148438,0.144531,-0.205078,-0.09375,0.171875
75812.0,-7.183594,-3.246094,5.933594,-0.070312,0.261719,0.105469,-0.224609,-0.115234,0.175781
75836.0,-7.027344,-3.515625,5.855469,0.003906,0.0,-0.011719,-0.265625,-0.144531,0.158203
75851.0,-6.90625,-3.667969,5.855469,0.042969,-0.113281,-0.011719,-0.228516,-0.160156,0.154297
75875.0,-6.761719,-3.476562,5.972656,0.265625,0.046875,0.097656,-0.183594,-0.150391,0.150391
75891.0,-6.683594,-3.285156,5.894531,0.335938,0.199219,0.011719,-0.203125,-0.158203,0.144531
75915.0,-6.757812,-3.398438,5.855469,0.242188,0.125,-0.035156,-0.238281,-0.130859,0.150391
75932.0,-6.683594,-3.4375,5.894531,0.320312,0.125,-0.035156,-0.261719,-0.103516,0.15625
75955.0,-6.644531,-3.359375,5.820312,0.367188,0.171875,-0.054688,-0.265625,-0.087891,0.154297
75972.0,-6.796875,-3.4375,5.972656,0.328125,0.140625,0.019531,-0.292969,-0.091797,0.142578
75994.0,-6.910156,-3.667969,6.125,0.089844,-0.113281,0.265625,-0.320312,-0.083984,0.15625
76012.0,-6.871094,-3.707031,6.125,0.128906,-0.105469,0.273438,-0.25,-0.068359,0.154297
76026.0,-6.828125,-3.78125,6.085938,0.242188,-0.25,0.242188,-0.195312,-0.0625,0.150391
76041.0,-6.761719,-3.667969,6.046875,0.289062,-0.175781,0.25,-0.121094,-0.048828,0.119141
76066.0,-6.871094,-3.476562,5.933594,0.136719,0.09375,0.097656,-0.138672,-0.050781,0.080078
76082.0,-6.828125,-3.4375,5.972656,0.175781,0.179688,0.097656,-0.216797,-0.041016,0.044922
76105.0,-6.679688,-3.515625,5.933594,0.320312,0.085938,0.113281,-0.271484,-0.042969,0.015625
76122.0,-6.71875,-3.667969,5.894531,0.273438,0.027344,0.089844,-0.257812,-0.039062,-0.019531
76146.0,-6.644531,-3.550781,5.855469,0.34375,0.113281,0.066406,-0.226562,-0.03125,-0.033203
76162.0,-6.605469,-3.476562,5.855469,0.34375,0.171875,0.074219,-0.228516,-0.015625,-0.029297
76185.0,-6.601562,-3.667969,5.78125,0.371094,0.058594,0.015625,-0.240234,0.011719,-0.044922
76216.0,-6.71875,-3.667969,5.664062,0.210938,0.074219,-0.097656,-0.240234,0.044922,-0.070312
76233.0,-6.796875,-3.628906,5.589844,0.171875,0.167969,-0.082031,-0.277344,0.068359,-0.078125
76255.0,-7.066406,-3.9375,5.589844,-0.085938,-0.078125,-0.074219,-0.300781,0.076172,-0.074219
76272.0,-7.179688,-3.898438,5.664062,-0.125,-0.054688,-0.019531,-0.302734,0.068359,-0.076172
76296.0,-7.25,-4.050781,5.742188,-0.269531,-0.105469,0.148438,-0.333984,0.039062,-0.078125
76313.0,-7.367188,-4.128906,5.855469,-0.355469,-0.121094,0.195312,-0.335938,-0.003906,-0.085938
76334.0,-7.292969,-4.203125,5.972656,-0.332031,-0.164062,0.433594,-0.335938,-0.025391,-0.085938
76366.0,-7.144531,-4.242188,6.011719,-0.203125,-0.132812,0.496094,-0.298828,-0.083984,-0.089844
76383.0,-7.105469,-4.28125,5.894531,-0.132812,-0.109375,0.417969,-0.271484,-0.160156,-0.074219
76406.0,-7.023438,-4.164062,5.894531,-0.136719,0.023438,0.371094,-0.265625,-0.1875,-0.068359
76423.0,-6.949219,-4.28125,5.78125,-0.152344,-0.03125,0.324219,-0.269531,-0.251953,-0.052734
76447.0,-6.90625,-4.320312,5.628906,-0.082031,-0.0625,0.074219,-0.25,-0.283203,-0.021484
76473.0,-6.871094,-4.433594,5.4375,-0.121094,-0.144531,-0.058594,-0.251953,-0.298828,0.015625
76492.0,-6.949219,-4.546875,5.472656,-0.191406,-0.226562,-0.148438,-0.234375,-0.283203,0.033203
76513.0,-6.949219,-4.511719,5.472656,-0.207031,-0.21875,-0.121094,-0.253906,-0.234375,0.060547
76533.0,-6.757812,-4.472656,5.398438,-0.160156,-0.152344,-0.21875,-0.208984,-0.185547,0.107422
76566.0,-6.871094,-4.164062,5.246094,-0.183594,0.210938,-0.386719,-0.193359,-0.203125,0.140625
76583.0,-6.796875,-4.128906,5.167969,-0.191406,0.238281,-0.386719,-0.251953,-0.253906,0.154297
76597.0,-6.71875,-4.164062,5.128906,-0.046875,0.171875,-0.480469,-0.269531,-0.273438,0.169922
76613.0,-6.644531,-4.320312,5.054688,-0.023438,0.140625,-0.527344,-0.279297,-0.304688,0.21875
76637.0,-6.640625,-4.472656,5.089844,0.0,-0.089844,-0.589844,-0.3125,-0.314453,0.273438
76653.0,-6.644531,-4.472656,5.015625,-0.007812,-0.089844,-0.625,-0.337891,-0.304688,0.298828
76677.0,-6.757812,-4.664062,4.9375,-0.132812,-0.273438,-0.757812,-0.392578,-0.289062,0.298828
76693.0,-6.722656,-4.738281,4.859375,-0.101562,-0.347656,-0.871094,-0.457031,-0.277344,0.289062
76717.0,-6.5625,-4.703125,4.785156,0.042969,-0.296875,-0.910156,-0.476562,-0.251953,0.302734
76733.0,-6.527344,-4.664062,4.785156,0.042969,-0.28125,-0.894531,-0.482422,-0.222656,0.318359
76750.0,-6.488281,-4.664062,4.746094,0.082031,-0.234375,-0.886719,-0.482422,-0.207031,0.322266
76766.0,-6.527344,-4.703125,4.746094,0.097656,-0.265625,-0.902344,-0.476562,-0.185547,0.328125
76796.0,-6.566406,-4.703125,4.859375,0.082031,-0.242188,-0.742188,-0.533203,-0.123047,0.333984
76813.0,-6.605469,-4.777344,4.898438,0.050781,-0.234375,-0.726562,-0.576172,-0.115234,0.335938
76828.0,-6.601562,-4.894531,4.976562,0.023438,-0.449219,-0.53125,-0.578125,-0.113281,0.335938
76844.0,-6.761719,-5.007812,5.015625,-0.007812,-0.476562,-0.515625,-0.5625,-0.115234,0.330078
76866.0,-6.867188,-5.316406,5.167969,-0.175781,-0.792969,-0.300781,-0.554688,-0.123047,0.328125
76884.0,-6.832031,-5.277344,5.246094,-0.085938,-0.785156,-0.207031,-0.501953,-0.160156,0.3125
76907.0,-6.910156,-5.160156,5.246094,-0.183594,-0.605469,-0.167969,-0.5,-0.1875,0.304688
76923.0,-6.949219,-5.238281,5.28125,-0.183594,-0.636719,-0.117188,-0.505859,-0.220703,0.300781
76946.0,-6.871094,-5.390625,5.28125,-0.144531,-0.8125,-0.101562,-0.482422,-0.238281,0.298828
76963.0,-6.871094,-5.238281,5.246094,-0.136719,-0.730469,-0.046875,-0.394531,-0.277344,0.322266
76986.0,-6.761719,-5.199219,5.167969,-0.023438,-0.621094,-0.207031,-0.375,-0.28125,0.332031
77004.0,-6.683594,-5.160156,5.089844,0.015625,-0.621094,-0.167969,-0.359375,-0.298828,0.335938
77018.0,-6.601562,-5.125,5.089844,0.199219,-0.546875,-0.320312,-0.349609,-0.3125,0.332031
77034.0,-6.375,-5.125,4.976562,0.285156,-0.546875,-0.40625,-0.339844,-0.322266,0.330078
77050.0,-6.296875,-5.238281,4.859375,0.390625,-0.628906,-0.5,-0.324219,-0.326172,0.324219
77067.0,-6.257812,-5.199219,4.824219,0.46875,-0.636719,-0.582031,-0.314453,-0.326172,0.314453
77084.0,-6.222656,-5.125,4.824219,0.496094,-0.597656,-0.589844,-0.314453,-0.279297,0.298828
77114.0,-6.257812,-5.316406,4.859375,0.460938,-0.675781,-0.667969,-0.300781,-0.1875,0.287109
77137.0,-6.257812,-5.390625,4.824219,0.46875,-0.835938,-0.582031,-0.289062,-0.140625,0.265625
77154.0,-6.144531,-5.390625,4.824219,0.503906,-0.835938,-0.574219,-0.251953,-0.09375,0.251953
77177.0,-6.261719,-5.542969,4.898438,0.492188,-0.988281,-0.484375,-0.259766,-0.083984,0.220703
77194.0,-6.339844,-5.660156,4.824219,0.5,-1.074219,-0.550781,-0.263672,-0.0625,0.167969
77208.0,-6.484375,-5.660156,4.898438,0.191406,-1.058594,-0.421875,-0.277344,-0.058594,0.148438
77224.0,-6.566406,-5.582031,4.824219,0.160156,-1.050781,-0.445312,-0.335938,-0.013672,0.138672
77247.0,-6.523438,-5.429688,4.785156,0.253906,-0.828125,-0.503906,-0.361328,0.013672,0.138672
77257.0,-6.523438,-5.390625,4.785156,0.261719,-0.773438,-0.488281,-0.369141,0.037109,0.126953
77287.0,-6.445312,-5.316406,4.515625,0.355469,-0.652344,-0.6875,-0.373047,0.021484,0.089844
77305.0,-6.445312,-5.160156,4.476562,0.355469,-0.597656,-0.671875,-0.398438,-0.046875,0.064453
77327.0,-6.5625,-5.125,4.402344,0.238281,-0.390625,-0.730469,-0.427734,-0.064453,0.068359
77344.0,-6.640625,-5.277344,4.441406,0.238281,-0.441406,-0.714844,-0.505859,-0.085938,0.089844
77368.0,-6.800781,-5.429688,4.515625,0.007812,-0.617188,-0.53125,-0.513672,-0.072266,0.134766
77384.0,-6.867188,-5.542969,4.515625,-0.027344,-0.625,-0.515625,-0.503906,-0.068359,0.181641
77407.0,-6.949219,-5.542969,4.554688,-0.128906,-0.660156,-0.40625,-0.482422,-0.076172,0.210938
77424.0,-6.988281,-5.542969,4.476562,-0.152344,-0.652344,-0.421875,-0.470703,-0.066406,0.302734
77439.0,-7.023438,-5.660156,4.441406,-0.175781,-0.800781,-0.421875,-0.478516,-0.058594,0.337891
77454.0,-7.101562,-5.773438,4.554688,-0.195312,-0.875,-0.320312,-0.476562,-0.033203,0.386719
77472.0,-7.105469,-5.699219,4.59375,-0.210938,-0.882812,-0.296875,-0.476562,-0.046875,0.398438
77494.0,-7.101562,-5.621094,4.632812,-0.125,-0.769531,-0.164062,-0.488281,-0.107422,0.425781
77518.0,-7.179688,-5.734375,4.476562,-0.203125,-0.859375,-0.265625,-0.455078,-0.171875,0.447266
77534.0,-7.367188,-5.660156,4.324219,-0.300781,-0.867188,-0.355469,-0.429688,-0.234375,0.474609
77558.0,-7.222656,-5.277344,4.171875,-0.195312,-0.441406,-0.53125,-0.460938,-0.257812,0.507812
77575.0,-7.144531,-5.085938,4.058594,-0.09375,-0.378906,-0.601562,-0.503906,-0.318359,0.535156
77597.0,-7.21875,-5.125,3.828125,-0.148438,-0.335938,-0.867188,-0.582031,-0.414062,0.542969
77615.0,-7.21875,-5.238281,3.75,-0.140625,-0.425781,-0.898438,-0.652344,-0.488281,0.558594
77629.0,-7.25,-5.316406,3.789062,-0.09375,-0.617188,-0.867188,-0.679688,-0.503906,0.570312
77644.0,-7.101562,-5.507812,3.867188,-0.007812,-0.75,-0.859375,-0.693359,-0.521484,0.587891
77669.0,-6.988281,-5.542969,4.058594,0.113281,-0.808594,-0.636719,-0.714844,-0.496094,0.609375
77685.0,-6.910156,-5.542969,4.210938,0.199219,-0.773438,-0.554688,-0.763672,-0.460938,0.613281
77697.0,-6.800781,-5.582031,4.285156,0.328125,-0.863281,-0.402344,-0.779297,-0.447266,0.617188
77717.0,-6.796875,-5.542969,4.554688,0.34375,-0.832031,-0.109375,-0.791016,-0.447266,0.611328
77748.0,-6.90625,-5.925781,4.785156,0.253906,-1.222656,0.160156,-0.818359,-0.400391,0.580078
77788.0,-6.761719,-5.429688,4.785156,0.492188,-0.773438,0.222656,-0.574219,-0.183594,0.671875
77805.0,-6.910156,-5.160156,4.746094,0.441406,-0.652344,0.199219,-0.402344,-0.082031,0.65625
77825.0,-7.25,-4.738281,4.441406,0.21875,-0.246094,-0.007812,-0.328125,-0.099609,0.587891
77845.0,-7.484375,-4.546875,4.25,0.035156,-0.140625,-0.183594,-0.283203,-0.134766,0.537109
77865.0,-7.75,-4.089844,4.09375,-0.269531,0.234375,-0.3125,-0.289062,-0.166016,0.515625
77885.0,-7.90625,-3.820312,4.019531,-0.390625,0.484375,-0.351562,-0.314453,-0.160156,0.537109
77905.0,-8.058594,-3.78125,3.902344,-0.550781,0.554688,-0.527344,-0.349609,-0.138672,0.583984
77925.0,-8.214844,-3.476562,3.902344,-0.566406,0.570312,-0.566406,-0.384766,-0.148438,0.646484
77949.0,-8.332031,-3.207031,3.867188,-0.734375,1.019531,-0.585938,-0.511719,-0.175781,0.701172
77978.0,-8.367188,-3.207031,3.980469,-0.71875,0.941406,-0.425781,-0.644531,-0.226562,0.798828
77996.0,-8.367188,-3.246094,3.941406,-0.6875,0.941406,-0.449219,-0.708984,-0.255859,0.871094
78016.0,-8.4375,-3.246094,3.941406,-0.6875,0.722656,-0.425781,-0.742188,-0.269531,0.939453
78036.0,-8.519531,-3.09375,3.980469,-0.691406,0.761719,-0.417969,-0.814453,-0.283203,1.0
78050.0,-8.480469,-3.015625,3.980469,-0.652344,0.898438,-0.339844,-0.859375,-0.292969,1.023438
78065.0,-8.476562,-3.09375,3.980469,-0.621094,0.8125,-0.324219,-0.941406,-0.351562,1.050781
78090.0,-8.519531,-3.09375,3.980469,-0.574219,0.617188,-0.300781,-0.972656,-0.396484,1.085938
78106.0,-8.59375,-2.941406,4.019531,-0.597656,0.648438,-0.292969,-1.048828,-0.404297,1.138672
78118.0,-8.515625,-2.902344,4.019531,-0.503906,0.660156,-0.238281,-1.099609,-0.404297,1.169922
78137.0,-8.4375,-2.976562,4.171875,-0.371094,0.492188,-0.070312,-1.144531,-0.398438,1.199219
78161.0,-8.441406,-2.976562,4.210938,-0.316406,0.390625,0.0,-1.212891,-0.386719,1.251953
78186.0,-8.441406,-2.976562,4.210938,-0.300781,0.25,0.046875,-1.226562,-0.396484,1.265625
78209.0,-8.371094,-2.863281,4.363281,-0.117188,0.246094,0.191406,-1.265625,-0.412109,1.244141
78226.0,-8.332031,-2.863281,4.402344,-0.046875,0.230469,0.246094,-1.275391,-0.431641,1.214844
78239.0,-8.253906,-2.863281,4.476562,-0.015625,0.136719,0.285156,-1.275391,-0.433594,1.201172
78280.0,-8.09375,-2.554688,4.632812,0.285156,0.21875,0.484375,-1.25,-0.412109,1.119141
78296.0,-8.09375,-2.554688,4.746094,0.308594,0.132812,0.566406,-1.195312,-0.402344,1.058594
78317.0,-8.171875,-2.519531,4.746094,0.261719,0.097656,0.597656,-1.183594,-0.402344,1.03125
78359.0,-8.214844,-2.59375,4.707031,0.246094,-0.101562,0.535156,-1.162109,-0.417969,0.839844
78376.0,-8.09375,-2.554688,4.667969,0.253906,-0.085938,0.496094,-1.111328,-0.431641,0.769531
78393.0,-7.90625,-2.59375,4.632812,0.371094,-0.109375,0.480469,-1.091797,-0.445312,0.726562
78417.0,-7.710938,-2.519531,4.632812,0.707031,-0.195312,0.375,-1.083984,-0.53125,0.564453
78437.0,-7.945312,-1.980469,4.746094,0.699219,0.226562,0.449219,-1.169922,-0.587891,0.464844
78456.0,-7.949219,-2.058594,4.707031,0.492188,0.425781,0.464844,-1.292969,-0.617188,0.400391
78472.0,-7.949219,-2.25,4.667969,0.523438,-0.019531,0.363281,-1.318359,-0.625,0.376953
78496.0,-7.75,-2.59375,4.746094,0.558594,-0.09375,0.363281,-1.201172,-0.564453,0.351562
78511.0,-7.710938,-2.59375,4.667969,0.605469,-0.085938,0.253906,-1.144531,-0.53125,0.347656
78526.0,-7.753906,-2.554688,4.667969,0.550781,-0.0625,0.238281,-1.058594,-0.490234,0.330078
78539.0,-7.828125,-2.519531,4.632812,0.453125,0.089844,0.171875,-1.035156,-0.46875,0.302734
78581.0,-7.828125,-2.902344,4.785156,0.398438,-0.191406,0.285156,-0.998047,-0.388672,0.205078
78621.0,-7.675781,-2.941406,4.898438,0.542969,-0.058594,0.4375,-0.8125,-0.267578,0.181641
78637.0,-7.671875,-2.785156,4.898438,0.503906,0.042969,0.4375,-0.78125,-0.220703,0.167969
78660.0,-7.789062,-2.976562,4.9375,0.363281,-0.09375,0.445312,-0.777344,-0.191406,0.169922
78677.0,-7.753906,-2.863281,4.898438,0.363281,0.003906,0.375,-0.761719,-0.144531,0.177734
78700.0,-7.671875,-2.671875,4.9375,0.480469,0.296875,0.492188,-0.765625,-0.121094,0.1875
78717.0,-7.601562,-2.671875,4.9375,0.472656,0.3125,0.53125,-0.775391,-0.117188,0.208984
78739.0,-7.527344,-2.59375,5.015625,0.632812,0.4375,0.609375,-0.765625,-0.117188,0.228516
78759.0,-7.636719,-2.363281,5.015625,0.519531,0.691406,0.632812,-0.724609,-0.125,0.263672
78780.0,-7.828125,-2.328125,4.9375,0.289062,0.675781,0.578125,-0.748047,-0.166016,0.257812
78797.0,-7.945312,-2.480469,4.976562,0.25,0.644531,0.507812,-0.761719,-0.164062,0.267578
78816.0,-7.871094,-2.632812,5.015625,0.242188,0.628906,0.632812,-0.753906,-0.183594,0.261719
78837.0,-7.867188,-2.863281,5.128906,0.28125,0.382812,0.734375,-0.693359,-0.1875,0.232422
78851.0,-7.871094,-2.941406,5.128906,0.203125,0.171875,0.816406,-0.628906,-0.179688,0.214844
78866.0,-8.019531,-2.941406,5.167969,0.15625,0.214844,0.855469,-0.519531,-0.171875,0.181641
78890.0,-8.171875,-2.824219,5.054688,-0.042969,0.347656,0.742188,-0.470703,-0.167969,0.162109
78907.0,-8.292969,-2.902344,4.976562,-0.082031,0.316406,0.742188,-0.388672,-0.164062,0.074219
78930.0,-8.515625,-2.941406,4.859375,-0.402344,0.269531,0.539062,-0.394531,-0.166016,0.041016
78947.0,-8.4375,-2.976562,4.824219,-0.371094,0.324219,0.539062,-0.458984,-0.144531,0.052734
78970.0,-8.054688,-3.167969,4.632812,0.035156,0.105469,0.3125,-0.496094,-0.138672,0.060547
78987.0,-7.671875,-3.246094,4.554688,0.21875,0.050781,0.28125,-0.570312,-0.162109,0.072266
79010.0,-7.183594,-3.359375,4.402344,0.890625,-0.007812,0.105469,-0.585938,-0.173828,0.068359
79027.0,-6.871094,-3.589844,4.171875,0.992188,-0.101562,-0.019531,-0.583984,-0.171875,0.005859
79041.0,-6.796875,-3.589844,4.09375,1.289062,-0.214844,-0.230469,-0.582031,-0.169922,-0.019531
79058.0,-6.71875,-3.78125,4.058594,1.359375,-0.222656,-0.222656,-0.630859,-0.136719,-0.097656
79080.0,-6.757812,-3.9375,3.941406,1.25,-0.390625,-0.308594,-0.671875,-0.039062,-0.142578
79121.0,-7.253906,-3.285156,3.671875,0.738281,0.417969,-0.453125,-0.765625,0.179688,-0.011719
79138.0,-7.332031,-3.207031,3.636719,0.746094,0.449219,-0.449219,-0.785156,0.275391,0.214844
79161.0,-7.523438,-2.554688,3.480469,0.546875,1.203125,-0.441406,-0.751953,0.371094,0.326172
79177.0,-7.945312,-2.59375,3.214844,0.378906,1.195312,-0.578125,-0.675781,0.414062,0.646484
79201.0,-8.476562,-2.75,2.871094,-0.261719,0.898438,-0.824219,-0.673828,0.375,0.912109
79218.0,-8.824219,-2.824219,2.792969,-0.367188,0.800781,-0.769531,-0.630859,0.380859,1.205078
79232.0,-9.015625,-2.75,2.679688,-0.878906,0.875,-0.824219,-0.605469,0.376953,1.345703
79258.0,-10.125,-1.5625,2.257812,-1.292969,1.3125,-0.988281,-0.525391,0.347656,1.712891
79270.0,-10.363281,-1.40625,2.332031,-1.574219,1.53125,-1.132812,-0.546875,0.412109,1.771484
79288.0,-10.546875,-1.523438,1.875,-1.824219,1.375,-1.222656,-0.789062,0.453125,1.851562
79311.0,-10.394531,-2.632812,1.796875,-1.527344,-0.226562,-1.304688,-1.09375,0.388672,1.904297
79327.0,-10.390625,-3.707031,2.332031,-1.582031,-0.894531,-0.945312,-1.189453,0.208984,1.736328
79351.0,-9.941406,-3.972656,1.796875,-0.890625,-2.035156,-1.117188,-1.007812,0.207031,1.339844
79367.0,-10.203125,-4.511719,1.949219,-0.972656,-2.359375,-0.964844,-0.933594,0.056641,1.033203
79380.0,-9.980469,-4.933594,1.644531,-0.851562,-3.222656,-1.175781,-0.730469,0.070312,0.916016
79422.0,-9.554688,-4.433594,1.453125,-0.367188,-2.925781,-1.265625,-0.363281,0.240234,0.609375
79438.0,-8.859375,-4.511719,1.605469,-0.273438,-2.941406,-0.84375,-0.412109,0.277344,-0.0625
79461.0,-8.132812,-2.671875,1.296875,1.089844,-1.132812,-1.265625,-0.263672,0.541016,-0.066406
79478.0,-7.871094,-1.597656,1.222656,1.265625,-0.390625,-1.164062,-0.283203,0.601562,0.101562
79502.0,-8.019531,-2.402344,0.074219,1.277344,-0.847656,-2.238281,-0.378906,0.650391,0.072266
79518.0,-8.4375,-3.054688,0.1875,1.089844,-1.261719,-2.167969,-0.304688,0.695312,0.011719
79542.0,-9.480469,-2.136719,0.265625,-0.117188,-0.566406,-1.75,0.048828,0.732422,0.029297
79558.0,-10.324219,-1.0625,0.148438,-0.570312,0.039062,-1.765625,0.158203,0.728516,0.076172
79580.0,-11.007812,0.085938,-0.195312,-1.601562,1.632812,-1.945312,0.023438,0.712891,0.107422
79598.0,-11.167969,0.621094,-0.425781,-1.695312,1.894531,-1.945312,-0.869141,0.621094,0.203125
79613.0,-11.199219,0.890625,-0.464844,-1.863281,2.652344,-2.070312,-1.21875,0.607422,0.269531
79628.0,-11.511719,1.390625,-0.691406,-1.960938,2.789062,-2.0625,-1.777344,0.609375,0.511719
79641.0,-11.65625,1.390625,-0.691406,-2.160156,2.859375,-1.957031,-1.941406,0.625,0.699219
79660.0,-11.894531,0.929688,-0.769531,-2.34375,2.273438,-1.847656,-2.037109,0.638672,0.908203
79692.0,-11.546875,-0.488281,-1.039062,-1.929688,0.511719,-1.84375,-2.167969,0.625,1.644531
79708.0,-11.164062,-1.175781,-1.152344,-1.714844,0.011719,-1.796875,-2.005859,0.609375,1.839844
79721.0,-11.007812,-1.40625,-1.269531,-1.335938,-0.882812,-1.839844,-1.875,0.59375,1.886719
79741.0,-10.78125,-1.789062,-1.382812,-1.085938,-1.617188,-1.8125,-1.726562,0.5625,1.890625
79763.0,-10.628906,-1.90625,-1.421875,-0.960938,-1.742188,-1.796875,-1.355469,0.453125,1.740234
79779.0,-10.625,-1.40625,-1.496094,-0.921875,-1.941406,-1.785156,-1.216797,0.378906,1.53125
79804.0,-10.8125,-1.367188,-1.652344,-1.128906,-2.125,-1.839844,-1.160156,0.271484,1.259766
79821.0,-10.746094,-1.292969,-1.613281,-1.070312,-2.253906,-1.769531,-1.216797,0.169922,0.955078
79843.0,-10.511719,-0.871094,-1.613281,-0.695312,-1.949219,-1.683594,-1.298828,0.134766,0.794922
79859.0,-10.046875,-0.601562,-1.460938,-0.585938,-1.859375,-1.644531,-1.699219,0.076172,0.332031
79882.0,-9.441406,-0.871094,-1.191406,0.210938,-2.113281,-1.363281,-1.912109,0.111328,0.072266
79899.0,-9.242188,-0.984375,-1.0,0.371094,-2.191406,-1.332031,-1.957031,0.179688,-0.142578
79922.0,-9.515625,-0.601562,-0.464844,0.148438,-1.773438,-0.636719,-1.910156,0.234375,-0.28125
79939.0,-9.707031,-0.335938,-0.117188,0.078125,-1.589844,-0.445312,-1.810547,0.259766,-0.335938
79956.0,-9.824219,-0.144531,0.148438,-0.027344,-1.4375,-0.28125,-1.753906,0.263672,-0.337891
79969.0,-9.863281,0.046875,0.300781,-0.171875,-1.066406,0.085938,-1.640625,0.257812,-0.328125
80000.0,-9.554688,-0.027344,0.609375,0.15625,-0.933594,0.53125,-1.533203,0.253906,-0.287109
80032.0,-9.359375,-0.488281,0.800781,0.355469,-1.339844,0.785156,-1.236328,0.28125,-0.146484
80048.0,-9.398438,-0.488281,0.800781,0.316406,-1.410156,0.808594,-0.728516,0.316406,0.013672
80073.0,-9.515625,-0.066406,0.6875,0.203125,-0.917969,0.78125,-0.4375,0.298828,0.103516
80088.0,-9.515625,0.238281,0.609375,0.203125,-0.773438,0.734375,-0.28125,0.222656,0.173828
80112.0,-9.625,0.851562,0.53125,0.089844,-0.0625,0.71875,-0.269531,0.175781,0.203125
80132.0,-9.785156,1.160156,0.378906,-0.035156,0.070312,0.691406,-0.292969,0.091797,0.263672
80159.0,-10.8125,2.230469,-0.195312,-0.761719,0.878906,0.292969,-0.226562,0.011719,0.214844
80184.0,-11.351562,2.960938,-0.5,-1.652344,1.890625,-0.296875,-0.458984,-0.236328,0.140625
80224.0,-8.941406,3.535156,0.457031,0.769531,2.25,0.332031,-1.353516,-0.792969,-0.277344
80239.0,-8.941406,2.613281,0.570312,0.855469,1.8125,0.160156,-1.810547,-0.830078,-0.136719
80260.0,-9.4375,1.425781,1.375,0.777344,1.605469,0.328125,-2.25,-0.826172,0.111328
80280.0,-9.398438,0.125,1.492188,0.347656,-0.222656,0.882812,-2.332031,-0.658203,0.015625
80302.0,-9.058594,-1.023438,1.683594,0.648438,-1.976562,0.910156,-2.0625,-0.412109,-0.117188
80343.0,-8.480469,-0.871094,1.875,1.214844,-1.761719,0.914062,-1.347656,-0.335938,0.177734
80360.0,-8.710938,-0.757812,2.140625,1.128906,-1.691406,0.980469,-1.132812,-0.28125,0.291016
80375.0,-8.902344,-0.792969,2.179688,0.585938,-1.722656,1.285156,-1.091797,-0.21875,0.292969
80399.0,-9.746094,-0.984375,2.5625,0.078125,-1.902344,1.429688,-1.140625,0.033203,0.126953
80423.0,-9.859375,-1.101562,2.792969,-0.1875,-2.046875,1.660156,-1.111328,0.289062,0.044922
80440.0,-9.707031,-1.023438,2.871094,-0.148438,-1.992188,1.722656,-0.986328,0.515625,0.017578
80453.0,-9.441406,-1.101562,2.945312,-0.027344,-1.945312,1.792969,-0.902344,0.603516,0.007812
80470.0,-9.171875,-1.140625,3.023438,0.402344,-2.007812,2.015625,-0.611328,0.703125,0.013672
80492.0,-8.859375,-0.949219,2.984375,0.839844,-1.839844,2.195312,-0.404297,0.71875,0.021484
80503.0,-8.75,-0.792969,2.90625,0.960938,-1.683594,2.179688,0.017578,0.689453,0.066406
80532.0,-8.636719,-0.257812,2.601562,1.085938,-1.171875,2.054688,0.326172,0.585938,0.097656
80550.0,-8.710938,-0.144531,2.484375,1.046875,-1.140625,2.070312,0.59375,0.435547,0.105469
80573.0,-8.976562,0.046875,2.292969,0.738281,-0.90625,1.933594,0.689453,0.363281,0.058594
