Time,ax,ay,az,lax,lay,laz,gx,gy,gz
294046.0,-9.066406,-2.121094,3.078125,0.214844,-0.292969,0.882812,1.412109,0.275391,-0.5
294072.0,-9.101562,-2.121094,2.886719,0.285156,-0.332031,0.875,1.908203,0.349609,-0.40625
294095.0,-9.027344,-2.082031,2.695312,0.246094,-0.269531,0.46875,2.150391,0.351562,-0.332031
294112.0,-9.300781,-1.890625,2.429688,0.167969,-0.179688,0.347656,2.357422,0.34375,-0.294922
294127.0,-8.679688,-1.699219,2.542969,-0.40625,0.042969,-0.019531,2.470703,0.375,-0.296875
294143.0,-10.449219,-1.816406,1.660156,-0.941406,0.164062,-0.296875,2.503906,0.255859,-0.298828
294155.0,-10.101562,-2.007812,1.625,-0.828125,-0.367188,-0.671875,2.533203,0.261719,-0.212891
294172.0,-10.566406,-1.394531,1.316406,0.980469,-0.097656,-0.191406,2.746094,0.451172,-0.138672
294193.0,-9.761719,-1.546875,0.703125,-1.273438,0.152344,-0.996094,2.642578,0.292969,0.011719
294212.0,-9.300781,-1.28125,0.398438,-0.105469,0.050781,-1.601562,2.703125,0.322266,0.150391
294233.0,-9.101562,-1.089844,0.167969,0.015625,0.007812,-1.945312,2.642578,0.25,0.189453
294262.0,-9.21875,-0.359375,-0.292969,0.085938,0.539062,-2.511719,2.03125,-0.007812,0.154297
294277.0,-9.261719,-0.320312,-0.292969,-0.03125,0.558594,-2.746094,1.748047,-0.066406,0.128906
294317.0,-9.679688,-0.054688,-0.367188,-0.351562,0.65625,-2.851562,0.445312,-0.103516,-0.017578
294332.0,-9.683594,0.214844,0.015625,-0.351562,0.808594,-2.707031,-0.314453,-0.037109,-0.132812
294355.0,-9.792969,0.097656,0.550781,-0.472656,0.878906,-1.925781,-0.701172,0.009766,-0.183594
294396.0,-9.792969,-1.242188,1.625,-0.472656,-0.242188,-0.734375,-1.783203,0.175781,-0.113281
294413.0,-9.832031,-1.625,1.738281,-0.503906,-0.339844,-0.621094,-1.703125,0.150391,0.021484
294435.0,-9.910156,-2.199219,1.816406,-0.574219,-1.058594,-0.394531,-1.347656,0.113281,0.160156
294453.0,-9.867188,-2.277344,1.890625,-0.488281,-1.097656,-0.21875,-0.859375,0.126953,0.314453
294475.0,-9.722656,-2.121094,1.929688,-0.359375,-1.027344,-0.1875,-0.439453,0.167969,0.396484
294506.0,-9.640625,-1.699219,1.433594,-0.25,-0.707031,-0.613281,-0.044922,0.220703,0.435547
294516.0,-9.679688,-1.546875,1.242188,-0.28125,-0.609375,-0.78125,0.222656,0.216797,0.449219
294533.0,-9.683594,-1.242188,0.894531,-0.273438,-0.464844,-0.949219,0.324219,0.1875,0.441406
294563.0,-9.644531,-0.820312,0.628906,-0.171875,-0.109375,-1.28125,0.166016,0.173828,0.373047
294586.0,-9.683594,-0.820312,0.628906,-0.226562,-0.179688,-1.261719,0.056641,0.207031,0.310547
294603.0,-9.71875,-0.894531,0.742188,-0.265625,-0.171875,-1.164062,-0.025391,0.212891,0.267578
294627.0,-9.832031,-1.011719,0.972656,-0.355469,-0.472656,-0.824219,-0.023438,0.228516,0.242188
294643.0,-9.789062,-1.125,1.011719,-0.394531,-0.496094,-0.761719,0.001953,0.222656,0.246094
294658.0,-9.832031,-1.089844,1.011719,-0.347656,-0.621094,-0.667969,0.015625,0.210938,0.257812
294698.0,-9.832031,-1.089844,0.855469,-0.332031,-0.730469,-0.777344,0.244141,0.166016,0.283203
294713.0,-9.71875,-0.972656,0.855469,-0.25,-0.683594,-0.796875,0.351562,0.15625,0.257812
294737.0,-9.757812,-0.742188,0.703125,-0.234375,-0.5,-0.875,0.433594,0.136719,0.177734
294754.0,-9.601562,-0.359375,0.664062,-0.15625,-0.371094,-0.851562,0.458984,0.080078,0.076172
294776.0,-9.683594,-0.054688,0.550781,-0.148438,0.132812,-0.972656,0.435547,0.058594,0.009766
294817.0,-9.757812,0.367188,0.4375,-0.234375,0.601562,-1.101562,0.285156,-0.199219,-0.277344
294833.0,-9.71875,0.519531,0.628906,-0.242188,0.742188,-1.050781,0.136719,-0.355469,-0.40625
294857.0,-9.789062,0.75,0.78125,-0.300781,1.132812,-0.882812,0.056641,-0.583984,-0.488281
294874.0,-9.910156,0.980469,1.050781,-0.300781,1.289062,-0.753906,-0.029297,-0.767578,-0.498047
294888.0,-10.105469,1.132812,1.050781,-0.839844,1.800781,-0.847656,-0.0625,-0.84375,-0.480469
294904.0,-10.445312,1.671875,1.125,-0.933594,2.042969,-0.78125,-0.203125,-0.998047,-0.355469
294927.0,-10.367188,1.632812,1.050781,-0.996094,2.296875,-1.152344,-0.417969,-1.060547,-0.238281
294946.0,-10.292969,1.324219,1.085938,-0.941406,2.027344,-1.226562,-0.5625,-1.099609,-0.208984
294974.0,-10.023438,0.558594,1.46875,-0.683594,1.433594,-1.308594,-0.619141,-1.111328,-0.220703
294998.0,-10.105469,0.484375,1.851562,-0.929688,1.304688,-0.867188,-0.607422,-1.160156,-0.146484
295014.0,-9.945312,-0.054688,2.3125,-0.882812,1.097656,-0.816406,-0.646484,-1.154297,-0.001953
295038.0,-9.601562,-0.742188,2.621094,-0.449219,-0.042969,-0.476562,-0.666016,-1.095703,0.115234
295054.0,-9.445312,-1.28125,3.195312,-0.402344,-0.226562,-0.410156,-0.560547,-0.998047,0.199219
295078.0,-9.488281,-1.394531,4.191406,-0.566406,-0.433594,0.613281,-0.34375,-0.931641,0.308594
295093.0,-8.875,-1.472656,4.613281,-0.292969,-0.496094,0.765625,-0.289062,-0.785156,0.474609
295112.0,-8.257812,-1.546875,4.996094,-0.007812,-0.558594,0.894531,-0.316406,-0.658203,0.494141
295134.0,-8.109375,-1.855469,4.996094,0.710938,-0.925781,1.164062,-0.251953,-0.414062,0.433594
295158.0,-8.113281,-2.082031,4.917969,0.671875,-1.355469,0.941406,-0.240234,-0.474609,0.339844
295175.0,-8.261719,-2.160156,4.996094,0.542969,-1.410156,0.910156,-0.257812,-0.509766,0.164062
295198.0,-8.71875,-2.238281,5.109375,-0.011719,-1.535156,0.976562,-0.230469,-0.501953,0.072266
295215.0,-8.878906,-2.121094,5.222656,-0.101562,-1.488281,0.984375,0.021484,-0.371094,-0.130859
295229.0,-8.917969,-2.007812,5.261719,-0.210938,-1.082031,0.921875,0.146484,-0.314453,-0.160156
295254.0,-8.222656,-1.242188,4.6875,0.1875,-0.652344,0.558594,0.3125,-0.171875,-0.242188
295269.0,-8.03125,-1.242188,4.574219,0.714844,-0.445312,0.144531,0.289062,-0.119141,-0.273438
295308.0,-7.800781,-1.355469,4.765625,0.816406,-0.527344,0.4375,0.291016,0.021484,-0.380859
295324.0,-7.800781,-1.433594,4.917969,0.777344,-0.542969,0.589844,0.367188,0.066406,-0.417969
295348.0,-7.269531,-1.816406,4.535156,1.351562,-0.902344,0.222656,0.357422,0.183594,-0.455078
295374.0,-7.109375,-2.621094,4.613281,1.511719,-1.144531,0.160156,0.490234,0.419922,-0.654297
295394.0,-7.691406,-2.851562,5.378906,1.160156,-1.8125,0.898438,0.761719,0.392578,-0.740234
295420.0,-8.152344,-2.660156,5.722656,0.523438,-1.527344,1.589844,1.052734,0.310547,-0.699219
295457.0,-7.34375,-3.117188,3.882812,1.359375,-2.007812,-0.210938,1.664062,0.380859,-0.548828
295497.0,-6.609375,-2.046875,1.242188,2.199219,-1.171875,-2.65625,3.150391,1.234375,-0.441406
295538.0,-9.339844,1.554688,2.390625,-0.320312,2.210938,-1.039062,2.447266,1.613281,-0.787109
295555.0,-10.171875,3.242188,3.195312,-1.0,3.167969,-0.53125,1.566406,1.253906,-0.798828
295577.0,-9.40625,3.433594,3.460938,-0.246094,4.160156,0.453125,0.972656,1.064453,-0.619141
295609.0,-9.871094,1.132812,3.460938,-0.636719,1.960938,0.734375,0.765625,1.082031,-0.626953
295625.0,-10.632812,1.824219,3.15625,-1.089844,2.222656,0.691406,0.697266,0.470703,-0.535156
295648.0,-10.5625,2.628906,3.269531,-1.296875,3.566406,0.691406,0.708984,0.234375,-0.419922
295659.0,-10.675781,2.550781,3.234375,-1.417969,3.496094,0.648438,0.5,-0.111328,-0.310547
295689.0,-10.371094,1.324219,2.695312,-1.160156,2.339844,0.0,-0.160156,-0.644531,-0.310547
295705.0,-10.171875,0.789062,2.734375,-1.066406,2.105469,-0.03125,-0.314453,-0.830078,-0.314453
295729.0,-9.683594,-0.09375,2.773438,-0.570312,1.0625,-0.21875,-0.455078,-0.964844,-0.332031
295745.0,-9.183594,-0.703125,2.695312,-0.332031,0.835938,-0.34375,-0.441406,-1.0,-0.298828
295769.0,-8.683594,-1.203125,2.847656,0.292969,0.101562,-0.472656,-0.316406,-0.943359,-0.253906
295787.0,-8.601562,-1.242188,2.964844,0.332031,0.09375,-0.441406,-0.146484,-0.861328,-0.21875
295815.0,-8.644531,-0.933594,3.386719,0.230469,0.300781,-0.285156,-0.03125,-0.767578,-0.164062
295840.0,-8.796875,-0.859375,3.308594,-0.046875,0.578125,-0.519531,-0.185547,-0.726562,-0.146484
295855.0,-8.71875,-0.972656,3.234375,-0.078125,0.566406,-0.621094,-0.441406,-0.757812,-0.148438
295877.0,-8.570312,-1.242188,3.117188,0.054688,0.304688,-0.9375,-0.552734,-0.738281,-0.15625
295919.0,-8.21875,-1.546875,3.039062,0.285156,0.203125,-1.1875,-1.078125,-0.554688,-0.207031
295936.0,-8.1875,-1.855469,3.003906,0.253906,0.035156,-1.253906,-1.166016,-0.410156,-0.164062
295958.0,-8.257812,-2.199219,3.15625,0.160156,-0.214844,-1.117188,-1.158203,-0.203125,-0.048828
295976.0,-8.152344,-2.351562,3.308594,0.152344,-0.28125,-1.03125,-1.066406,0.097656,0.123047
296006.0,-7.800781,-1.738281,3.15625,0.613281,0.140625,-0.914062,-0.970703,0.576172,0.388672
296028.0,-8.074219,-1.777344,3.195312,0.484375,0.339844,-0.726562,-1.035156,0.691406,0.472656
296046.0,-8.21875,-1.890625,3.039062,0.414062,0.292969,-0.632812,-1.345703,0.794922,0.681641
296069.0,-8.492188,-2.390625,2.273438,0.234375,-0.3125,-1.257812,-1.564453,0.751953,0.769531
296086.0,-8.800781,-2.964844,1.96875,0.121094,-0.597656,-1.308594,-1.724609,0.646484,0.837891
296109.0,-9.605469,-3.691406,1.890625,-0.726562,-1.691406,-1.265625,-1.769531,0.595703,0.865234
296128.0,-9.90625,-3.808594,2.007812,-0.996094,-1.832031,-1.054688,-1.744141,0.595703,0.923828
296146.0,-10.75,-3.269531,2.238281,-1.613281,-1.585938,-0.691406,-1.628906,0.726562,0.935547
296167.0,-10.789062,-2.773438,2.121094,-1.730469,-1.394531,-0.550781,-1.513672,0.896484,0.919922
296181.0,-10.636719,-2.542969,2.238281,-2.070312,-0.648438,-0.394531,-1.441406,0.978516,0.900391
296220.0,-10.976562,-1.316406,1.125,-1.691406,0.199219,-0.921875,-1.199219,0.775391,1.009766
296236.0,-10.714844,-0.78125,0.664062,-1.507812,0.347656,-1.132812,-1.287109,0.542969,1.056641
296253.0,-10.59375,-0.207031,0.398438,-1.371094,0.585938,-1.21875,-1.363281,0.40625,1.064453
296269.0,-10.332031,0.023438,0.320312,-0.917969,1.15625,-1.40625,-1.472656,0.261719,1.068359
296286.0,-10.101562,-0.167969,0.320312,-0.753906,1.0,-1.382812,-1.847656,-0.1875,1.142578
296306.0,-9.757812,-1.089844,0.089844,-0.503906,0.277344,-1.535156,-1.939453,-0.445312,1.171875
296326.0,-9.761719,-1.433594,-0.023438,-0.339844,-0.53125,-1.652344,-1.845703,-0.667969,1.1875
296356.0,-9.722656,-1.699219,-0.332031,-0.273438,-0.953125,-2.136719,-1.787109,-0.847656,1.166016
296371.0,-9.679688,-1.96875,-0.367188,-0.371094,-1.53125,-2.40625,-1.792969,-0.880859,1.128906
296387.0,-9.679688,-2.046875,-0.332031,-0.351562,-1.710938,-2.476562,-1.996094,-0.958984,1.005859
296409.0,-9.445312,-2.121094,-0.253906,-0.097656,-1.964844,-2.628906,-2.140625,-1.025391,0.917969
296419.0,-9.375,-2.277344,-0.0625,-0.046875,-2.144531,-2.53125,-2.310547,-1.082031,0.757812
296450.0,-9.101562,-2.964844,0.398438,0.144531,-2.824219,-2.34375,-2.486328,-1.072266,0.638672
296466.0,-8.839844,-3.386719,0.472656,0.238281,-2.992188,-2.398438,-2.652344,-1.015625,0.439453
296490.0,-8.457031,-3.882812,0.78125,0.6875,-3.59375,-2.296875,-2.505859,-0.880859,0.316406
296508.0,-8.296875,-4.0,0.894531,0.816406,-3.664062,-2.246094,-2.205078,-0.697266,0.214844
296530.0,-8.148438,-4.191406,1.738281,0.90625,-3.699219,-1.542969,-1.869141,-0.525391,0.164062
296547.0,-8.148438,-4.265625,2.121094,0.859375,-3.726562,-1.375,-1.515625,-0.335938,0.171875
296562.0,-8.074219,-4.265625,2.351562,1.074219,-3.621094,-0.832031,-1.310547,-0.205078,0.1875
296601.0,-9.296875,-4.191406,3.117188,-0.242188,-3.527344,-0.140625,-0.367188,0.386719,0.185547
296616.0,-9.71875,-4.039062,3.5,-0.53125,-3.535156,0.058594,0.041016,0.705078,0.152344
296640.0,-9.296875,-2.660156,4.035156,-0.148438,-2.042969,1.066406,0.404297,1.216797,0.166016
296657.0,-9.375,-1.699219,4.035156,-0.101562,-1.527344,1.238281,0.615234,1.689453,0.078125
296679.0,-10.214844,-1.242188,4.074219,-0.886719,-0.703125,1.730469,0.818359,1.935547,-0.128906
296710.0,-11.59375,0.214844,3.308594,-2.148438,0.792969,1.472656,1.041016,1.816406,-0.349609
296726.0,-10.632812,1.363281,2.042969,-1.703125,1.390625,1.117188,0.716797,1.382812,-0.388672
296751.0,-10.144531,2.128906,0.820312,-0.609375,2.824219,-0.484375,0.541016,1.416016,-0.371094
296768.0,-10.289062,2.246094,1.585938,-0.554688,2.902344,-0.085938,-0.472656,1.099609,-0.455078
296790.0,-10.5625,1.9375,3.15625,-1.0,2.828125,2.28125,-0.994141,0.851562,-0.462891
296807.0,-9.949219,0.980469,2.734375,-0.691406,2.453125,2.226562,-1.402344,0.222656,-0.152344
296820.0,-9.792969,0.214844,2.3125,-0.222656,1.207031,1.570312,-1.376953,0.101562,-0.042969
296837.0,-9.339844,-1.96875,1.929688,0.160156,-0.355469,1.242188,-1.279297,-0.152344,0.082031
296858.0,-9.027344,-2.886719,2.042969,0.234375,-0.960938,1.210938,-1.109375,-0.335938,0.091797
296877.0,-9.378906,-4.496094,2.503906,0.351562,-2.984375,1.433594,-0.804688,-0.533203,-0.0625
296902.0,-9.40625,-4.804688,2.925781,0.144531,-3.742188,2.019531,-0.378906,-0.710938,-0.267578
296927.0,-8.835938,-4.230469,2.542969,0.511719,-3.355469,1.6875,0.271484,-0.851562,-0.392578
296947.0,-8.457031,-3.308594,2.007812,1.007812,-2.359375,0.902344,0.640625,-0.824219,-0.414062
296968.0,-8.640625,-2.773438,1.96875,0.9375,-1.675781,0.570312,0.873047,-0.773438,-0.455078
296982.0,-8.800781,-2.582031,2.007812,0.410156,-1.078125,0.472656,0.935547,-0.769531,-0.486328
296998.0,-9.296875,-2.199219,2.121094,0.230469,-0.921875,0.425781,1.0,-0.810547,-0.537109
297008.0,-9.378906,-2.046875,2.160156,0.101562,-0.769531,0.378906,1.025391,-0.814453,-0.544922
297021.0,-9.449219,-1.890625,2.121094,-0.136719,-0.277344,0.113281,1.044922,-0.802734,-0.529297
297038.0,-9.527344,-1.507812,2.007812,-0.199219,-0.09375,-0.015625,1.017578,-0.761719,-0.474609
297061.0,-9.683594,-1.242188,1.851562,-0.421875,0.359375,-0.421875,0.962891,-0.691406,-0.416016
297078.0,-9.722656,-1.050781,1.699219,-0.484375,0.460938,-0.621094,0.941406,-0.587891,-0.333984
297102.0,-9.761719,-0.476562,1.625,-0.578125,1.171875,-0.9375,0.871094,-0.492188,-0.220703
297131.0,-9.722656,0.292969,1.890625,-0.585938,1.933594,-0.835938,0.703125,-0.439453,-0.115234
297171.0,-8.984375,0.40625,1.777344,0.082031,2.007812,-1.160156,0.138672,-0.591797,0.044922
297187.0,-8.761719,0.214844,1.816406,0.179688,1.96875,-1.183594,-0.345703,-0.722656,0.072266
297211.0,-8.378906,-0.128906,1.96875,0.613281,1.503906,-1.203125,-0.480469,-0.753906,0.054688
297221.0,-8.417969,-0.207031,2.121094,0.554688,1.441406,-1.113281,-0.703125,-0.785156,0.005859
297251.0,-8.601562,-0.742188,2.351562,0.277344,1.007812,-1.054688,-0.988281,-0.808594,-0.134766
297292.0,-8.757812,-1.625,2.582031,0.003906,0.351562,-1.003906,-1.269531,-0.669922,-0.189453
297308.0,-8.453125,-2.199219,2.65625,0.089844,0.261719,-0.996094,-1.162109,-0.503906,-0.148438
297327.0,-8.152344,-2.503906,2.773438,0.425781,-0.210938,-0.914062,-0.898438,-0.326172,-0.113281
297348.0,-7.996094,-2.46875,3.003906,0.59375,-0.203125,-0.777344,-0.580078,-0.175781,-0.078125
297367.0,-8.035156,-2.3125,3.039062,0.730469,0.082031,-0.632812,-0.445312,-0.142578,-0.044922
297388.0,-7.726562,-1.738281,3.003906,0.761719,0.335938,-0.632812,-0.283203,-0.052734,0.095703
297402.0,-7.878906,-1.433594,2.964844,0.570312,0.648438,-0.691406,-0.367188,-0.046875,0.148438
297418.0,-8.914062,-2.046875,3.078125,0.1875,0.65625,-0.683594,-0.634766,-0.074219,0.232422
297441.0,-9.605469,-2.542969,3.308594,-0.953125,-0.214844,-0.316406,-0.923828,-0.121094,0.330078
297458.0,-9.40625,-2.503906,3.078125,-0.910156,-0.214844,-0.40625,-1.066406,0.076172,0.416016
297482.0,-9.566406,-2.390625,2.582031,-0.871094,-0.0625,-0.902344,-1.089844,0.347656,0.443359
297498.0,-9.90625,-2.429688,2.351562,-1.039062,-0.015625,-0.992188,-1.216797,0.480469,0.490234
297522.0,-10.25,-2.429688,2.582031,-1.441406,-0.109375,-0.605469,-1.400391,0.583984,0.578125
297539.0,-10.445312,-1.929688,2.65625,-1.527344,0.074219,-0.488281,-1.689453,0.646484,0.662109
297553.0,-10.484375,-1.664062,2.65625,-1.570312,0.863281,-0.300781,-1.876953,0.654297,0.705078
297568.0,-10.332031,-1.242188,2.464844,-1.5,1.007812,-0.230469,-2.265625,0.625,0.783203
297582.0,-10.25,-1.242188,2.390625,-1.238281,1.023438,-0.195312,-2.445312,0.619141,0.822266
297599.0,-9.867188,-1.96875,2.199219,-0.976562,0.703125,-0.195312,-2.617188,0.546875,0.9375
297620.0,-9.484375,-2.734375,1.96875,-0.785156,0.265625,-0.160156,-2.412109,0.423828,1.089844
297638.0,-8.722656,-3.386719,1.316406,0.082031,-1.132812,-0.5625,-1.960938,0.294922,1.220703
297660.0,-8.722656,-3.386719,0.472656,0.496094,-1.355469,-0.675781,-1.4375,0.201172,1.294922
297678.0,-8.679688,-3.195312,0.4375,0.667969,-1.535156,-1.398438,-0.9375,0.132812,1.365234
297704.0,-8.953125,-2.621094,0.398438,0.4375,-1.207031,-1.351562,-0.583984,0.101562,1.404297
297743.0,-9.789062,-1.433594,0.246094,-0.339844,-0.488281,-1.449219,-0.630859,-0.003906,1.289062
297758.0,-10.101562,-1.242188,0.28125,-0.480469,-0.488281,-1.480469,-1.115234,-0.089844,1.148438
297781.0,-10.367188,-1.203125,0.207031,-0.878906,-0.617188,-1.488281,-1.753906,-0.236328,0.970703
297799.0,-10.289062,-1.394531,0.207031,-0.886719,-0.75,-1.496094,-2.330078,-0.410156,0.777344
297823.0,-10.0625,-2.007812,0.398438,-0.585938,-1.5625,-1.398438,-2.693359,-0.574219,0.613281
297840.0,-9.792969,-2.390625,0.472656,-0.480469,-1.753906,-1.429688,-2.818359,-0.660156,0.521484
297861.0,-9.222656,-2.695312,0.820312,0.226562,-2.234375,-1.15625,-2.78125,-0.683594,0.503906
297893.0,-8.679688,-3.234375,1.164062,0.722656,-2.75,-0.96875,-2.488281,-0.714844,0.453125
297909.0,-8.644531,-3.425781,1.316406,0.753906,-2.855469,-0.910156,-1.947266,-0.673828,0.400391
297932.0,-8.71875,-3.269531,1.546875,0.644531,-2.753906,-0.78125,-1.726562,-0.630859,0.386719
297949.0,-8.800781,-2.964844,1.585938,0.589844,-2.609375,-0.773438,-1.160156,-0.429688,0.333984
297962.0,-8.757812,-2.8125,1.625,0.566406,-2.296875,-0.796875,-1.046875,-0.353516,0.316406
297974.0,-8.71875,-2.8125,1.660156,0.523438,-2.265625,-0.746094,-0.957031,-0.275391,0.292969
298012.0,-9.484375,-3.308594,1.96875,-0.160156,-2.792969,-0.484375,-0.609375,-0.015625,0.173828
298044.0,-9.261719,-2.886719,2.199219,0.085938,-2.378906,-0.175781,0.074219,0.392578,0.085938
298069.0,-8.875,-2.503906,2.351562,0.453125,-2.136719,0.039062,0.583984,0.71875,0.082031
298084.0,-8.914062,-2.351562,2.351562,0.332031,-1.667969,0.289062,0.734375,0.779297,0.048828
298099.0,-9.644531,-1.625,2.621094,0.085938,-1.453125,0.441406,0.851562,0.832031,-0.0625
298124.0,-9.984375,-1.242188,3.039062,-0.515625,-0.8125,1.210938,0.720703,0.871094,-0.166016
298139.0,-9.761719,-1.125,3.15625,-0.394531,-0.757812,1.414062,0.630859,1.027344,-0.197266
298163.0,-9.71875,-1.164062,3.003906,-0.195312,-0.679688,1.558594,0.615234,1.158203,-0.201172
298180.0,-9.832031,-1.203125,2.886719,-0.246094,-0.710938,1.597656,0.623047,1.164062,-0.238281
298204.0,-9.988281,-1.050781,3.003906,-0.40625,-0.488281,1.988281,0.529297,1.033203,-0.320312
298220.0,-9.90625,-1.011719,2.964844,-0.363281,-0.339844,2.082031,0.398438,0.826172,-0.369141
298242.0,-9.601562,-1.28125,2.964844,0.007812,-0.578125,2.261719,0.474609,0.609375,-0.355469
298282.0,-9.828125,-1.890625,2.964844,-0.230469,-1.054688,2.378906,0.658203,0.244141,-0.359375
298300.0,-9.871094,-2.046875,3.117188,-0.199219,-1.179688,2.453125,1.082031,-0.068359,-0.296875
298315.0,-10.066406,-2.160156,3.078125,-0.46875,-1.355469,2.347656,1.265625,-0.15625,-0.261719
298331.0,-9.984375,-2.429688,2.542969,-0.4375,-1.453125,2.15625,1.708984,-0.277344,-0.214844
298353.0,-9.488281,-1.96875,1.777344,0.089844,-0.992188,0.980469,1.910156,-0.289062,-0.191406
298370.0,-9.378906,-1.316406,1.507812,0.128906,-0.648438,0.808594,2.099609,-0.337891,-0.201172
298394.0,-9.257812,-0.398438,1.507812,0.296875,0.601562,0.492188,1.867188,-0.421875,-0.248047
298411.0,-9.261719,-0.285156,1.507812,0.296875,0.722656,0.421875,1.458984,-0.550781,-0.337891
298440.0,-9.179688,-0.703125,1.699219,0.332031,0.519531,0.355469,0.945312,-0.712891,-0.429688
298465.0,-9.183594,-1.050781,1.738281,0.371094,-0.007812,0.238281,0.767578,-0.650391,-0.455078
298480.0,-8.878906,-1.28125,1.929688,0.425781,-0.085938,0.199219,0.730469,-0.511719,-0.410156
298510.0,-8.917969,-1.050781,1.890625,0.578125,0.070312,0.117188,0.744141,-0.185547,-0.279297
298530.0,-9.183594,-0.933594,2.042969,0.410156,0.253906,0.132812,0.748047,-0.005859,-0.179688
298550.0,-9.375,-0.703125,2.121094,0.101562,0.53125,0.253906,0.773438,0.115234,-0.105469
298570.0,-9.484375,-0.511719,2.042969,-0.058594,0.761719,0.214844,0.761719,0.195312,-0.072266
298591.0,-9.566406,-0.167969,1.96875,-0.175781,1.011719,0.109375,0.707031,0.222656,-0.0625
298603.0,-9.601562,0.023438,1.929688,-0.203125,1.3125,0.09375,0.648438,0.216797,-0.058594
298624.0,-9.640625,0.445312,1.890625,-0.234375,1.726562,0.0625,0.570312,0.195312,-0.0625
298641.0,-9.644531,0.636719,1.851562,-0.226562,1.832031,0.078125,0.324219,0.101562,-0.089844
298663.0,-9.683594,0.558594,1.890625,-0.273438,1.847656,0.078125,0.179688,0.03125,-0.109375
298681.0,-9.683594,0.445312,1.851562,-0.273438,1.78125,0.03125,0.099609,-0.033203,-0.117188
298695.0,-9.679688,0.367188,1.851562,-0.28125,1.679688,-0.011719,0.082031,-0.056641,-0.119141
298734.0,-9.683594,0.40625,1.890625,-0.296875,1.757812,0.015625,0.033203,-0.099609,-0.134766
298750.0,-9.644531,0.445312,1.851562,-0.257812,1.773438,0.0,-0.105469,-0.175781,-0.158203
298774.0,-9.5625,0.328125,1.816406,-0.199219,1.742188,-0.121094,-0.228516,-0.232422,-0.158203
298790.0,-9.449219,0.175781,1.777344,-0.128906,1.691406,-0.144531,-0.351562,-0.269531,-0.132812
298814.0,-9.296875,-0.128906,1.738281,0.039062,1.355469,-0.285156,-0.4375,-0.294922,-0.101562
298831.0,-9.296875,-0.285156,1.851562,0.03125,1.292969,-0.238281,-0.527344,-0.308594,-0.074219
298846.0,-9.300781,-0.359375,1.851562,-0.023438,1.054688,-0.203125,-0.580078,-0.314453,-0.066406
298861.0,-9.410156,-0.703125,1.96875,-0.070312,0.957031,-0.21875,-0.666016,-0.320312,-0.046875
298885.0,-9.296875,-1.011719,2.007812,-0.015625,0.582031,-0.171875,-0.710938,-0.294922,-0.025391
298901.0,-9.261719,-1.089844,2.007812,0.015625,0.566406,-0.226562,-0.716797,-0.242188,-0.005859
298925.0,-9.21875,-1.203125,2.007812,0.046875,0.445312,-0.21875,-0.707031,-0.201172,0.015625
298941.0,-9.335938,-1.242188,1.96875,0.0,0.414062,-0.226562,-0.689453,-0.195312,0.037109
298971.0,-9.605469,-1.203125,1.890625,-0.316406,0.453125,-0.320312,-0.736328,-0.158203,0.048828
298982.0,-9.640625,-1.164062,1.929688,-0.359375,0.492188,-0.359375,-0.761719,-0.136719,0.060547
299003.0,-9.601562,-0.972656,1.929688,-0.367188,0.753906,-0.328125,-0.794922,-0.115234,0.080078
299044.0,-9.0625,-0.933594,1.777344,0.175781,0.800781,-0.449219,-0.998047,-0.089844,0.244141
299062.0,-8.917969,-1.050781,1.699219,0.253906,0.722656,-0.488281,-1.105469,-0.123047,0.287109
299092.0,-8.800781,-1.28125,1.585938,0.453125,0.476562,-0.578125,-1.271484,-0.193359,0.345703
299116.0,-8.839844,-1.546875,1.625,0.414062,0.148438,-0.570312,-1.365234,-0.21875,0.367188
299131.0,-8.914062,-1.738281,1.660156,0.382812,0.03125,-0.5625,-1.429688,-0.212891,0.376953
299155.0,-9.027344,-2.082031,1.738281,0.230469,-0.402344,-0.433594,-1.476562,-0.185547,0.375
299171.0,-9.105469,-2.3125,1.816406,0.152344,-0.535156,-0.355469,-1.498047,-0.150391,0.367188
299194.0,-9.179688,-2.503906,1.890625,0.082031,-0.839844,-0.242188,-1.496094,-0.123047,0.361328
299214.0,-9.179688,-2.542969,1.929688,0.089844,-0.878906,-0.1875,-1.429688,-0.044922,0.349609
299232.0,-9.066406,-2.542969,1.890625,0.175781,-0.933594,-0.148438,-1.322266,-0.003906,0.345703
299254.0,-8.988281,-2.503906,1.851562,0.300781,-0.902344,-0.140625,-1.15625,0.03125,0.335938
299272.0,-8.914062,-2.3125,1.777344,0.390625,-0.765625,-0.175781,-0.974609,0.060547,0.314453
299292.0,-8.957031,-2.046875,1.738281,0.4375,-0.566406,-0.175781,-0.845703,0.064453,0.294922
299311.0,-9.101562,-1.664062,1.625,0.261719,-0.207031,-0.214844,-0.804688,0.041016,0.277344
299332.0,-9.257812,-1.472656,1.546875,0.152344,0.007812,-0.296875,-0.84375,0.001953,0.267578
299351.0,-9.40625,-1.355469,1.433594,-0.03125,0.175781,-0.382812,-0.925781,-0.019531,0.257812
299382.0,-9.5625,-1.433594,1.433594,-0.058594,0.167969,-0.410156,-1.078125,-0.029297,0.242188
299402.0,-9.5625,-1.507812,1.46875,-0.214844,0.074219,-0.371094,-1.148438,-0.023438,0.242188
299423.0,-9.5625,-1.777344,1.507812,-0.199219,-0.207031,-0.25,-1.181641,-0.005859,0.242188
299442.0,-9.445312,-1.929688,1.546875,-0.199219,-0.285156,-0.234375,-1.171875,0.019531,0.246094
299457.0,-9.375,-2.007812,1.46875,0.046875,-0.636719,-0.253906,-1.150391,0.037109,0.25
299472.0,-9.183594,-2.277344,1.277344,0.125,-0.722656,-0.316406,-1.091797,0.060547,0.257812
299496.0,-9.183594,-2.621094,1.085938,0.214844,-1.160156,-0.515625,-0.986328,0.070312,0.255859
299512.0,-9.21875,-2.734375,0.972656,0.179688,-1.242188,-0.566406,-0.84375,0.101562,0.222656
299536.0,-9.378906,-2.695312,0.972656,0.039062,-1.265625,-0.535156,-0.714844,0.15625,0.164062
299552.0,-9.566406,-2.582031,1.011719,-0.035156,-1.191406,-0.472656,-0.652344,0.222656,0.09375
299565.0,-9.679688,-2.542969,0.972656,-0.257812,-1.113281,-0.449219,-0.642578,0.234375,0.076172
299592.0,-9.761719,-2.429688,1.085938,-0.363281,-0.984375,-0.347656,-0.625,0.261719,0.046875
299607.0,-9.757812,-2.503906,1.085938,-0.28125,-1.089844,-0.125,-0.591797,0.277344,0.054688
299622.0,-9.644531,-2.542969,1.203125,-0.273438,-1.089844,-0.085938,-0.478516,0.324219,0.056641
299645.0,-9.5625,-2.351562,1.125,-0.105469,-0.898438,-0.015625,-0.40625,0.337891,0.056641
299686.0,-9.449219,-2.082031,0.820312,0.027344,-0.628906,-0.1875,-0.193359,0.292969,0.085938
299702.0,-9.445312,-2.082031,0.742188,0.027344,-0.636719,-0.226562,-0.177734,0.242188,0.09375
299726.0,-9.410156,-2.199219,0.589844,0.082031,-0.777344,-0.300781,-0.152344,0.210938,0.091797
299743.0,-9.484375,-2.351562,0.511719,0.003906,-0.898438,-0.324219,-0.085938,0.173828,0.072266
299765.0,-9.644531,-2.351562,0.398438,-0.140625,-0.9375,-0.421875,-0.042969,0.177734,0.060547
299796.0,-9.757812,-1.929688,0.320312,-0.25,-0.523438,-0.453125,0.064453,0.152344,0.025391
299813.0,-9.867188,-1.777344,0.246094,-0.285156,-0.449219,-0.476562,0.052734,0.087891,-0.009766
299836.0,-9.984375,-1.625,0.167969,-0.476562,-0.203125,-0.574219,0.033203,0.058594,-0.025391
299846.0,-10.101562,-1.546875,0.207031,-0.59375,-0.125,-0.527344,0.013672,0.019531,-0.029297
299876.0,-9.984375,-1.164062,0.089844,-0.476562,0.265625,-0.644531,-0.041016,-0.009766,0.007812
299916.0,-9.757812,-1.242188,0.015625,-0.25,0.179688,-0.71875,-0.193359,-0.082031,0.056641
299933.0,-9.757812,-1.28125,0.015625,-0.25,0.132812,-0.765625,-0.201172,-0.134766,0.083984
299956.0,-9.683594,-1.242188,-0.0625,-0.171875,0.15625,-0.828125,-0.205078,-0.138672,0.103516
299988.0,-9.484375,-1.316406,-0.0625,0.027344,0.050781,-0.859375,-0.296875,-0.160156,0.162109
300028.0,-9.449219,-1.625,-0.023438,0.074219,-0.304688,-0.859375,-0.298828,-0.160156,0.150391
300043.0,-9.40625,-1.664062,-0.023438,0.074219,-0.351562,-0.90625,-0.257812,-0.148438,0.15625
300067.0,-9.378906,-1.699219,-0.101562,0.148438,-0.425781,-0.96875,-0.244141,-0.142578,0.148438
300083.0,-9.375,-1.664062,-0.0625,0.148438,-0.433594,-0.976562,-0.216797,-0.130859,0.128906
300107.0,-9.410156,-1.625,0.015625,0.121094,-0.390625,-0.882812,-0.195312,-0.09375,0.121094
300124.0,-9.449219,-1.699219,0.054688,0.121094,-0.429688,-0.882812,-0.150391,-0.0625,0.113281
300146.0,-9.40625,-1.664062,0.089844,0.121094,-0.453125,-0.808594,-0.056641,-0.013672,0.111328
300164.0,-9.410156,-1.546875,0.089844,0.121094,-0.390625,-0.808594,0.037109,0.039062,0.115234
300186.0,-9.339844,-1.28125,0.128906,0.203125,-0.109375,-0.753906,0.083984,0.056641,0.123047
300216.0,-9.40625,-1.125,0.128906,0.136719,0.007812,-0.722656,0.205078,0.099609,0.123047
300244.0,-9.484375,-0.933594,0.167969,0.066406,0.058594,-0.707031,0.273438,0.109375,0.09375
300264.0,-9.640625,-0.742188,0.207031,-0.046875,0.273438,-0.652344,0.279297,0.115234,0.072266
300283.0,-9.757812,-0.589844,0.320312,-0.085938,0.34375,-0.589844,0.238281,0.132812,0.041016
300304.0,-10.023438,-0.476562,0.398438,-0.386719,0.550781,-0.375,0.152344,0.154297,-0.001953
300336.0,-9.949219,-0.320312,0.78125,-0.378906,0.742188,0.09375,0.060547,0.199219,-0.005859
300354.0,-9.792969,-0.4375,1.011719,-0.300781,0.664062,0.230469,-0.056641,0.261719,0.017578
300368.0,-9.679688,-0.511719,1.125,-0.023438,0.433594,0.660156,-0.072266,0.269531,0.025391
300383.0,-9.40625,-0.859375,1.355469,0.097656,0.320312,0.730469,0.001953,0.287109,0.044922
300408.0,-9.335938,-1.125,1.277344,0.242188,-0.078125,0.777344,0.160156,0.269531,0.068359
300425.0,-9.296875,-1.089844,1.203125,0.289062,-0.050781,0.765625,0.330078,0.230469,0.052734
300446.0,-9.21875,-0.894531,1.085938,0.375,0.128906,0.671875,0.396484,0.207031,0.029297
300485.0,-9.566406,-0.820312,1.085938,0.019531,0.226562,0.71875,0.488281,0.15625,-0.144531
300528.0,-9.761719,-0.894531,1.355469,-0.171875,0.253906,1.011719,0.423828,0.056641,-0.324219
300544.0,-9.910156,-1.050781,1.507812,-0.253906,0.246094,1.050781,0.427734,-0.017578,-0.390625
300567.0,-10.175781,-1.089844,1.851562,-0.613281,0.199219,1.46875,0.488281,-0.173828,-0.402344
300585.0,-10.140625,-0.933594,1.890625,-0.621094,0.347656,1.484375,0.630859,-0.298828,-0.341797
300599.0,-10.066406,-0.820312,1.851562,-0.4375,0.601562,1.300781,0.708984,-0.337891,-0.283203
300614.0,-9.792969,-0.511719,1.546875,-0.371094,0.769531,1.175781,0.833984,-0.361328,-0.142578
300638.0,-9.644531,-0.359375,1.164062,-0.109375,1.0625,0.507812,0.818359,-0.341797,-0.046875
300656.0,-9.640625,-0.320312,1.050781,-0.109375,1.09375,0.339844,0.667969,-0.310547,-0.019531
300684.0,-9.5625,-0.09375,1.011719,-0.042969,1.277344,0.105469,0.28125,-0.351562,-0.037109
300705.0,-9.523438,-0.128906,1.085938,-0.050781,1.3125,0.144531,-0.035156,-0.410156,-0.060547
300725.0,-9.449219,-0.476562,1.242188,0.058594,1.136719,0.226562,-0.298828,-0.455078,-0.101562
300749.0,-9.296875,-0.859375,1.316406,0.1875,0.519531,0.261719,-0.46875,-0.453125,-0.160156
300765.0,-9.296875,-0.972656,1.507812,0.179688,0.464844,0.261719,-0.568359,-0.425781,-0.201172
300790.0,-9.140625,-1.355469,1.738281,0.308594,0.191406,0.511719,-0.513672,-0.392578,-0.171875
300827.0,-9.261719,-1.738281,1.929688,0.171875,-0.121094,0.59375,-0.316406,-0.300781,-0.109375
300837.0,-9.335938,-1.738281,2.007812,0.085938,-0.121094,0.640625,-0.123047,-0.244141,-0.054688
300855.0,-9.410156,-1.664062,1.96875,0.046875,-0.074219,0.625,0.003906,-0.1875,-0.007812
300875.0,-9.445312,-1.472656,1.890625,-0.027344,0.117188,0.515625,0.050781,-0.134766,0.019531
300908.0,-9.335938,-1.316406,1.816406,0.078125,0.285156,0.355469,-0.007812,-0.087891,0.037109
300925.0,-9.335938,-1.28125,1.738281,0.078125,0.320312,0.300781,-0.0625,-0.066406,0.041016
300945.0,-9.300781,-1.316406,1.699219,0.070312,0.269531,0.214844,-0.125,-0.035156,0.044922
300965.0,-9.300781,-1.316406,1.699219,0.117188,0.269531,0.207031,-0.201172,-0.001953,0.056641
300985.0,-9.339844,-1.316406,1.777344,0.078125,0.253906,0.246094,-0.261719,0.023438,0.068359
301005.0,-9.335938,-1.355469,1.816406,0.078125,0.253906,0.292969,-0.306641,0.041016,0.083984
301019.0,-9.339844,-1.355469,1.851562,0.085938,0.167969,0.382812,-0.316406,0.050781,0.095703
301035.0,-9.339844,-1.507812,1.890625,0.085938,0.121094,0.390625,-0.326172,0.076172,0.115234
301058.0,-9.296875,-1.585938,1.890625,0.132812,-0.054688,0.46875,-0.279297,0.091797,0.132812
301075.0,-9.296875,-1.625,1.890625,0.132812,-0.101562,0.445312,-0.203125,0.103516,0.150391
301099.0,-9.40625,-1.585938,1.890625,0.035156,-0.101562,0.507812,-0.148438,0.107422,0.160156
301115.0,-9.449219,-1.507812,1.890625,0.003906,-0.117188,0.523438,-0.103516,0.099609,0.160156
301129.0,-9.445312,-1.433594,1.851562,-0.035156,0.082031,0.425781,-0.091797,0.097656,0.158203
301145.0,-9.445312,-1.316406,1.699219,0.011719,0.105469,0.402344,-0.074219,0.080078,0.166016
301170.0,-9.410156,-1.394531,1.585938,0.058594,-0.019531,0.273438,-0.054688,0.066406,0.162109
301185.0,-9.445312,-1.394531,1.585938,0.058594,-0.035156,0.265625,-0.060547,0.056641,0.144531
301209.0,-9.527344,-1.28125,1.625,-0.050781,0.046875,0.328125,-0.070312,0.054688,0.115234
301226.0,-9.601562,-1.28125,1.660156,-0.082031,0.03125,0.363281,-0.066406,0.0625,0.097656
301249.0,-9.679688,-1.28125,1.699219,-0.195312,0.0,0.417969,-0.09375,0.064453,0.101562
301266.0,-9.644531,-1.28125,1.738281,-0.195312,-0.007812,0.464844,-0.113281,0.066406,0.095703
301296.0,-9.605469,-1.394531,1.890625,-0.101562,-0.066406,0.59375,-0.099609,0.064453,0.091797
301320.0,-9.566406,-1.507812,1.929688,-0.066406,-0.28125,0.695312,-0.078125,0.066406,0.09375
301336.0,-9.527344,-1.585938,1.96875,-0.058594,-0.328125,0.742188,0.078125,0.085938,0.09375
301358.0,-9.5625,-1.585938,2.007812,-0.058594,-0.398438,0.789062,0.142578,0.089844,0.089844
301400.0,-9.566406,-1.28125,1.816406,-0.050781,-0.15625,0.605469,0.464844,0.056641,0.107422
301438.0,-9.375,-1.050781,1.625,0.148438,0.011719,0.40625,0.574219,0.0625,0.111328
301471.0,-9.445312,-0.820312,1.546875,0.082031,0.171875,0.3125,0.611328,0.054688,0.123047
301496.0,-9.339844,-1.011719,1.507812,0.082031,0.035156,0.273438,0.542969,-0.007812,0.035156
301550.0,-9.144531,-0.933594,1.164062,0.394531,-0.027344,-0.117188,0.570312,0.03125,0.015625
301566.0,-9.300781,-0.894531,1.242188,0.28125,0.003906,-0.078125,0.535156,0.052734,-0.015625
301583.0,-9.449219,-0.972656,1.433594,0.242188,-0.003906,-0.039062,0.503906,0.041016,-0.035156
301598.0,-9.605469,-1.089844,1.46875,-0.070312,-0.207031,0.164062,0.490234,0.021484,-0.050781
301630.0,-9.722656,-1.203125,1.546875,-0.1875,-0.320312,0.234375,0.587891,0.0,-0.082031
301646.0,-9.757812,-1.242188,1.507812,-0.226562,-0.359375,0.226562,0.701172,0.001953,-0.070312
301669.0,-9.679688,-1.164062,1.316406,-0.148438,-0.296875,-0.027344,0.828125,0.03125,-0.052734
301686.0,-9.566406,-1.011719,1.203125,-0.109375,-0.230469,-0.074219,0.914062,0.058594,-0.060547
301701.0,-9.523438,-0.972656,1.125,0.082031,-0.082031,-0.273438,0.941406,0.066406,-0.074219
301716.0,-9.445312,-0.742188,1.050781,0.042969,-0.007812,-0.308594,0.927734,0.054688,-0.105469
301739.0,-9.484375,-0.476562,1.050781,0.042969,0.367188,-0.324219,0.882812,0.033203,-0.128906
301756.0,-9.445312,-0.476562,1.011719,0.082031,0.375,-0.371094,0.708984,-0.027344,-0.189453
301779.0,-9.445312,-0.742188,1.050781,0.074219,0.125,-0.363281,0.666016,-0.03125,-0.201172
301820.0,-9.683594,-1.089844,1.546875,-0.164062,-0.167969,0.101562,0.578125,-0.042969,-0.207031
301839.0,-9.640625,-1.089844,1.625,-0.132812,-0.160156,0.164062,0.636719,-0.042969,-0.166016
301867.0,-9.683594,-1.164062,1.660156,-0.21875,-0.210938,0.132812,0.716797,-0.025391,-0.107422
301891.0,-9.640625,-1.242188,1.699219,-0.140625,-0.296875,0.175781,0.740234,-0.027344,-0.097656
301907.0,-9.605469,-1.203125,1.699219,-0.066406,-0.257812,0.160156,0.818359,-0.042969,-0.105469
301931.0,-9.40625,-1.125,1.699219,0.082031,-0.195312,0.121094,0.857422,-0.076172,-0.130859
301947.0,-9.339844,-1.089844,1.625,0.074219,-0.160156,0.105469,0.900391,-0.087891,-0.158203
301968.0,-9.300781,-1.203125,1.46875,0.179688,-0.273438,-0.179688,0.923828,-0.097656,-0.175781
302010.0,-9.527344,-0.628906,1.355469,-0.058594,0.324219,-0.347656,1.035156,0.025391,-0.251953
302027.0,-9.640625,-0.320312,1.585938,-0.132812,0.484375,-0.242188,0.96875,0.015625,-0.277344
302049.0,-9.644531,-0.207031,1.699219,-0.179688,0.785156,-0.035156,0.851562,-0.029297,-0.320312
302067.0,-9.527344,-0.207031,1.699219,-0.066406,0.800781,-0.089844,0.769531,-0.056641,-0.332031
302087.0,-9.484375,-0.246094,1.625,0.003906,0.800781,-0.148438,0.707031,-0.076172,-0.326172
302107.0,-9.523438,-0.207031,1.625,-0.050781,0.878906,-0.179688,0.630859,-0.111328,-0.324219
302122.0,-9.523438,-0.207031,1.625,-0.058594,0.957031,-0.21875,0.585938,-0.115234,-0.322266
302138.0,-9.488281,-0.167969,1.699219,-0.066406,0.964844,-0.199219,0.494141,-0.136719,-0.316406
302161.0,-9.527344,-0.359375,1.777344,-0.128906,0.835938,-0.136719,0.419922,-0.162109,-0.298828
302177.0,-9.523438,-0.589844,1.851562,-0.175781,0.742188,-0.121094,0.375,-0.181641,-0.267578
302201.0,-9.484375,-0.972656,1.851562,-0.113281,0.285156,-0.148438,0.359375,-0.15625,-0.242188
302217.0,-9.410156,-1.089844,1.890625,-0.121094,0.300781,-0.164062,0.384766,-0.105469,-0.203125
302241.0,-9.300781,-0.972656,1.816406,0.054688,0.332031,-0.246094,0.445312,-0.056641,-0.148438
302257.0,-9.296875,-0.894531,1.816406,0.054688,0.371094,-0.253906,0.458984,-0.019531,-0.087891
302271.0,-9.21875,-0.859375,1.777344,0.132812,0.4375,-0.355469,0.462891,0.001953,-0.066406
302287.0,-9.21875,-0.859375,1.738281,0.132812,0.429688,-0.402344,0.431641,0.042969,-0.023438
302312.0,-9.257812,-0.742188,1.660156,0.09375,0.523438,-0.433594,0.365234,0.072266,0.011719
302327.0,-9.300781,-0.742188,1.625,0.0625,0.589844,-0.433594,0.246094,0.091797,0.060547
302352.0,-9.378906,-0.589844,1.585938,-0.007812,0.628906,-0.484375,0.111328,0.111328,0.111328
302391.0,-9.378906,-0.667969,1.585938,0.007812,0.488281,-0.4375,-0.164062,0.136719,0.177734
302408.0,-9.375,-0.78125,1.625,0.007812,0.4375,-0.375,-0.283203,0.126953,0.195312
302431.0,-9.378906,-0.972656,1.585938,0.023438,0.136719,-0.367188,-0.357422,0.128906,0.199219
302448.0,-9.335938,-1.050781,1.585938,0.03125,0.113281,-0.351562,-0.390625,0.130859,0.199219
302462.0,-9.335938,-1.089844,1.546875,0.117188,-0.101562,-0.359375,-0.402344,0.136719,0.191406
302477.0,-9.339844,-1.203125,1.546875,0.117188,-0.109375,-0.34375,-0.408203,0.138672,0.191406
302501.0,-9.410156,-1.242188,1.585938,0.019531,-0.234375,-0.242188,-0.410156,0.136719,0.197266
302518.0,-9.410156,-1.242188,1.625,0.0625,-0.242188,-0.1875,-0.414062,0.134766,0.183594
302541.0,-9.445312,-1.242188,1.585938,0.003906,-0.273438,-0.179688,-0.386719,0.128906,0.171875
302558.0,-9.484375,-1.203125,1.546875,0.003906,-0.242188,-0.164062,-0.373047,0.121094,0.160156
302581.0,-9.601562,-1.164062,1.585938,-0.140625,-0.234375,-0.117188,-0.367188,0.115234,0.160156
302598.0,-9.601562,-1.125,1.507812,-0.132812,-0.210938,-0.140625,-0.363281,0.101562,0.164062
302613.0,-9.640625,-1.089844,1.507812,-0.164062,-0.152344,-0.148438,-0.351562,0.089844,0.166016
302652.0,-9.523438,-1.011719,1.394531,-0.003906,-0.113281,-0.222656,-0.367188,0.041016,0.15625
302668.0,-9.523438,-0.933594,1.355469,-0.042969,-0.121094,-0.253906,-0.373047,0.03125,0.140625
302690.0,-9.523438,-0.972656,1.277344,-0.035156,-0.152344,-0.308594,-0.367188,0.021484,0.134766
302701.0,-9.566406,-1.011719,1.242188,-0.074219,-0.199219,-0.34375,-0.394531,-0.003906,0.113281
302718.0,-9.566406,-0.894531,1.316406,-0.074219,-0.121094,-0.300781,-0.425781,-0.017578,0.09375
302748.0,-9.484375,-1.011719,1.277344,-0.035156,-0.128906,-0.335938,-0.490234,-0.023438,0.042969
302772.0,-9.410156,-1.164062,1.277344,0.058594,-0.085938,-0.207031,-0.505859,-0.013672,0.009766
302788.0,-9.40625,-1.242188,1.355469,0.066406,-0.15625,-0.160156,-0.474609,-0.001953,-0.009766
302811.0,-9.339844,-1.28125,1.355469,0.132812,-0.164062,-0.097656,-0.441406,0.025391,-0.029297
302829.0,-9.375,-1.28125,1.394531,0.125,-0.148438,-0.082031,-0.398438,0.052734,-0.054688
302843.0,-9.375,-1.316406,1.355469,0.09375,-0.125,-0.066406,-0.378906,0.064453,-0.066406
302858.0,-9.378906,-1.355469,1.394531,0.09375,-0.144531,-0.011719,-0.347656,0.083984,-0.087891
302881.0,-9.484375,-1.316406,1.433594,-0.027344,-0.105469,0.066406,-0.322266,0.09375,-0.091797
302891.0,-9.527344,-1.28125,1.46875,-0.066406,-0.0625,0.117188,-0.292969,0.101562,-0.09375
302922.0,-9.5625,-1.28125,1.507812,-0.105469,-0.023438,0.195312,-0.25,0.111328,-0.089844
302939.0,-9.5625,-1.28125,1.46875,-0.105469,0.023438,0.210938,-0.205078,0.128906,-0.087891
302962.0,-9.605469,-1.28125,1.546875,-0.132812,0.015625,0.289062,-0.15625,0.128906,-0.078125
302978.0,-9.5625,-1.242188,1.46875,-0.097656,0.03125,0.226562,-0.111328,0.111328,-0.0625
303002.0,-9.566406,-1.242188,1.355469,-0.097656,0.085938,0.144531,-0.083984,0.089844,-0.052734
303019.0,-9.5625,-1.242188,1.394531,-0.132812,0.09375,0.199219,-0.0625,0.0625,-0.046875
303034.0,-9.640625,-1.242188,1.355469,-0.132812,0.109375,0.167969,-0.056641,0.058594,-0.046875
303072.0,-9.640625,-1.242188,1.316406,-0.171875,0.125,0.152344,-0.029297,0.025391,-0.052734
303089.0,-9.640625,-1.242188,1.316406,-0.132812,0.09375,0.152344,-0.005859,0.001953,-0.048828
303111.0,-9.566406,-1.28125,1.355469,-0.097656,0.109375,0.191406,0.007812,-0.013672,-0.046875
303129.0,-9.566406,-1.242188,1.316406,-0.097656,0.15625,0.152344,0.048828,-0.041016,-0.037109
303153.0,-9.605469,-1.28125,1.316406,-0.140625,0.125,0.136719,0.072266,-0.0625,-0.029297
303170.0,-9.566406,-1.242188,1.316406,-0.105469,0.164062,0.128906,0.09375,-0.074219,-0.029297
303192.0,-9.523438,-1.242188,1.316406,-0.066406,0.171875,0.105469,0.101562,-0.080078,-0.03125
303209.0,-9.527344,-1.28125,1.277344,-0.074219,0.171875,0.050781,0.103516,-0.091797,-0.013672
303224.0,-9.488281,-1.242188,1.242188,-0.035156,0.132812,0.0,0.109375,-0.09375,-0.011719
303240.0,-9.445312,-1.28125,1.164062,0.003906,0.132812,-0.054688,0.119141,-0.080078,-0.005859
303262.0,-9.523438,-1.28125,1.316406,-0.082031,0.125,0.027344,0.121094,-0.083984,-0.001953
303303.0,-9.484375,-1.28125,1.355469,-0.042969,0.125,0.027344,0.09375,-0.085938,-0.007812
303319.0,-9.449219,-1.28125,1.316406,-0.042969,0.117188,-0.019531,0.097656,-0.066406,0.009766
303342.0,-9.40625,-1.28125,1.316406,0.027344,0.117188,-0.035156,0.109375,-0.054688,0.011719
303376.0,-9.445312,-1.28125,1.433594,-0.011719,0.109375,0.058594,0.123047,-0.044922,0.013672
303399.0,-9.488281,-1.28125,1.433594,-0.011719,0.101562,0.050781,0.103516,-0.046875,0.003906
303414.0,-9.488281,-1.28125,1.394531,0.027344,-0.015625,0.074219,0.107422,-0.044922,0.009766
303429.0,-9.449219,-1.316406,1.394531,0.027344,-0.023438,0.074219,0.121094,-0.044922,0.011719
303452.0,-9.445312,-1.316406,1.355469,0.058594,-0.058594,0.011719,0.132812,-0.035156,0.007812
303493.0,-9.410156,-1.28125,1.433594,0.089844,-0.03125,0.074219,0.197266,-0.003906,-0.019531
303510.0,-9.378906,-1.28125,1.355469,0.089844,-0.03125,0.027344,0.195312,-0.013672,-0.035156
303533.0,-9.378906,-1.242188,1.355469,0.109375,0.015625,-0.027344,0.177734,-0.021484,-0.052734
303550.0,-9.410156,-1.28125,1.433594,0.109375,-0.023438,0.011719,0.148438,-0.029297,-0.076172
303565.0,-9.375,-1.28125,1.507812,0.101562,-0.042969,0.109375,0.148438,-0.027344,-0.082031
303590.0,-9.378906,-1.394531,1.546875,0.085938,-0.066406,0.140625,0.199219,-0.005859,-0.111328
303620.0,-9.378906,-1.394531,1.546875,0.078125,-0.082031,0.125,0.265625,0.005859,-0.125
303643.0,-9.339844,-1.394531,1.546875,0.109375,-0.050781,0.117188,0.283203,0.007812,-0.128906
303659.0,-9.339844,-1.433594,1.546875,0.148438,-0.082031,0.148438,0.326172,0.019531,-0.148438
303683.0,-9.445312,-1.433594,1.585938,-0.019531,-0.050781,0.140625,0.341797,0.019531,-0.162109
303702.0,-9.40625,-1.433594,1.546875,0.019531,-0.042969,0.09375,0.382812,0.025391,-0.181641
303730.0,-9.527344,-1.433594,1.585938,-0.027344,0.027344,0.046875,0.398438,0.037109,-0.183594
303755.0,-9.601562,-1.507812,1.507812,-0.179688,-0.046875,0.039062,0.394531,0.039062,-0.173828
303780.0,-9.605469,-1.546875,1.625,-0.226562,-0.070312,0.109375,0.388672,0.021484,-0.119141
303800.0,-9.523438,-1.585938,1.699219,-0.1875,-0.054688,0.175781,0.408203,0.027344,-0.095703
303820.0,-9.488281,-1.585938,1.738281,-0.121094,-0.046875,0.246094,0.417969,0.035156,-0.083984
303835.0,-9.449219,-1.546875,1.738281,-0.003906,-0.085938,0.238281,0.435547,0.037109,-0.082031
303850.0,-9.296875,-1.472656,1.738281,0.0625,-0.046875,0.230469,0.466797,0.042969,-0.085938
303874.0,-9.140625,-1.316406,1.660156,0.261719,0.191406,0.144531,0.507812,0.050781,-0.095703
303890.0,-9.101562,-1.242188,1.660156,0.300781,0.226562,0.144531,0.587891,0.091797,-0.15625
303913.0,-9.144531,-1.050781,1.625,0.253906,0.480469,0.109375,0.587891,0.095703,-0.207031
303930.0,-9.183594,-0.859375,1.625,0.253906,0.605469,0.070312,0.527344,0.091797,-0.253906
303953.0,-9.375,-0.742188,1.660156,0.007812,0.851562,0.136719,0.435547,0.064453,-0.291016
303971.0,-9.449219,-0.742188,1.699219,-0.027344,0.875,0.175781,0.371094,0.068359,-0.306641
303990.0,-9.527344,-0.703125,1.738281,-0.152344,0.960938,0.214844,0.326172,0.082031,-0.302734
304011.0,-9.605469,-0.703125,1.699219,-0.199219,1.007812,0.175781,0.310547,0.083984,-0.287109
304025.0,-9.679688,-0.703125,1.699219,-0.359375,1.007812,0.144531,0.292969,0.070312,-0.273438
304041.0,-9.71875,-0.78125,1.625,-0.328125,0.984375,0.109375,0.255859,0.050781,-0.232422
304066.0,-9.679688,-0.78125,1.546875,-0.335938,1.039062,0.03125,0.207031,0.029297,-0.177734
304096.0,-9.757812,-1.050781,1.507812,-0.414062,0.785156,-0.015625,0.082031,-0.023438,-0.070312
304121.0,-9.683594,-1.242188,1.46875,-0.382812,0.640625,-0.03125,-0.027344,-0.054688,0.023438
304143.0,-9.523438,-1.394531,1.546875,-0.191406,0.441406,0.0,-0.035156,-0.044922,0.052734
304174.0,-9.523438,-1.625,1.546875,-0.183594,0.179688,0.0,-0.0625,-0.011719,0.091797
304191.0,-9.410156,-1.625,1.585938,-0.105469,0.132812,0.03125,-0.105469,-0.015625,0.080078
304214.0,-9.300781,-1.585938,1.585938,0.054688,0.179688,0.03125,-0.119141,0.001953,0.082031
304231.0,-9.339844,-1.472656,1.625,0.054688,0.292969,0.0,-0.144531,0.007812,0.076172
304255.0,-9.300781,-1.433594,1.660156,0.054688,0.308594,0.121094,-0.173828,0.005859,0.072266
304271.0,-9.300781,-1.507812,1.738281,0.0625,0.261719,0.199219,-0.171875,0.009766,0.076172
304295.0,-9.339844,-1.546875,1.777344,0.023438,0.179688,0.253906,-0.134766,0.037109,0.080078
304311.0,-9.375,-1.433594,1.738281,-0.015625,0.210938,0.261719,-0.068359,0.054688,0.083984
304334.0,-9.445312,-1.28125,1.777344,-0.074219,0.40625,0.269531,-0.019531,0.052734,0.099609
304351.0,-9.488281,-1.242188,1.738281,-0.113281,0.398438,0.238281,0.0,0.041016,0.115234
304366.0,-9.488281,-1.242188,1.738281,-0.152344,0.40625,0.246094,-0.005859,0.037109,0.121094
