Time,ax,ay,az,lax,lay,laz,gx,gy,gz
594258.0,1.621094,2.0625,9.414062,-0.019531,0.007812,-0.007812,-0.001953,0.0,-0.001953
594275.0,1.660156,2.023438,9.457031,0.054688,0.007812,-0.007812,0.003906,0.001953,0.0
594299.0,1.660156,2.0625,9.414062,0.019531,0.007812,-0.007812,0.003906,0.003906,-0.001953
594316.0,1.621094,2.0625,9.414062,0.011719,0.007812,-0.007812,0.001953,0.003906,-0.001953
594330.0,1.621094,2.0625,9.414062,-0.027344,-0.03125,-0.007812,0.003906,0.001953,-0.001953
594357.0,1.660156,2.0625,9.453125,0.011719,0.007812,0.03125,0.003906,0.003906,0.0
594384.0,1.621094,2.0625,9.453125,-0.019531,0.007812,-0.007812,0.001953,0.001953,0.0
594408.0,1.621094,2.0625,9.414062,-0.011719,0.007812,-0.007812,0.003906,0.001953,0.0
594440.0,1.621094,2.0625,9.414062,-0.011719,0.007812,-0.007812,0.001953,0.001953,0.0
594465.0,1.621094,2.0625,9.414062,-0.011719,0.007812,-0.007812,-0.001953,-0.003906,0.0
594479.0,1.621094,2.0625,9.453125,-0.011719,0.007812,-0.007812,0.0,-0.003906,0.001953
594494.0,1.621094,2.023438,9.417969,-0.011719,0.007812,-0.007812,0.0,-0.003906,0.0
594518.0,1.660156,2.0625,9.414062,0.019531,0.007812,-0.007812,0.001953,-0.001953,0.001953
594535.0,1.660156,2.0625,9.453125,0.027344,-0.03125,-0.007812,0.0,-0.001953,0.001953
594558.0,1.660156,2.023438,9.417969,0.027344,-0.03125,-0.007812,0.003906,-0.001953,0.001953
594575.0,1.621094,2.0625,9.453125,-0.011719,0.007812,-0.007812,-0.001953,0.0,0.003906
594597.0,1.660156,2.0625,9.453125,0.027344,0.007812,0.03125,0.001953,0.0,-0.001953
594615.0,1.660156,2.0625,9.453125,0.027344,0.007812,-0.007812,-0.001953,0.001953,0.001953
594635.0,1.621094,2.023438,9.417969,-0.011719,0.007812,-0.007812,-0.001953,0.0,-0.001953
594654.0,1.660156,2.0625,9.414062,-0.019531,-0.03125,-0.007812,0.0,0.007812,0.001953
594674.0,1.621094,2.023438,9.417969,0.027344,0.007812,-0.007812,0.001953,0.003906,0.001953
594695.0,1.621094,2.0625,9.414062,-0.011719,-0.03125,-0.007812,-0.001953,0.003906,-0.001953
594714.0,1.621094,2.023438,9.457031,-0.011719,0.007812,-0.007812,-0.001953,0.005859,0.001953
594739.0,1.660156,2.0625,9.414062,0.027344,0.007812,-0.007812,-0.001953,0.003906,-0.001953
594779.0,1.621094,2.0625,9.414062,-0.011719,0.007812,-0.007812,-0.001953,0.003906,0.001953
594818.0,1.621094,2.0625,9.453125,-0.011719,0.007812,0.03125,-0.003906,0.001953,0.001953
594834.0,1.621094,2.0625,9.414062,-0.011719,0.007812,-0.007812,-0.001953,0.001953,0.0
594858.0,1.621094,2.0625,9.414062,-0.011719,0.007812,-0.007812,-0.001953,-0.003906,0.0
594874.0,1.621094,2.0625,9.414062,-0.011719,0.007812,-0.007812,-0.001953,-0.003906,0.001953
594897.0,1.621094,2.0625,9.414062,-0.011719,0.007812,-0.007812,0.0,-0.003906,0.001953
594914.0,1.660156,2.0625,9.414062,-0.011719,0.007812,-0.007812,0.0,-0.003906,0.001953
594930.0,1.660156,2.0625,9.414062,-0.003906,0.007812,0.03125,0.0,-0.003906,0.001953
594954.0,1.660156,2.0625,9.453125,0.035156,0.015625,-0.007812,0.0,-0.001953,0.001953
594974.0,1.660156,2.0625,9.414062,-0.011719,0.007812,-0.007812,0.0,-0.003906,0.0
594995.0,1.621094,2.023438,9.417969,0.027344,0.007812,-0.007812,-0.001953,0.001953,0.0
595014.0,1.660156,2.0625,9.414062,0.027344,0.007812,-0.007812,0.001953,0.001953,-0.001953
595047.0,1.621094,2.0625,9.414062,-0.011719,0.007812,-0.007812,0.001953,0.005859,-0.003906
595064.0,1.621094,2.023438,9.417969,-0.011719,0.007812,0.03125,0.001953,0.005859,0.0
595084.0,1.621094,2.0625,9.453125,-0.011719,-0.03125,-0.007812,-0.001953,0.003906,-0.001953
595104.0,1.621094,2.0625,9.453125,-0.011719,0.007812,-0.007812,0.0,0.001953,0.0
595123.0,1.621094,2.0625,9.414062,0.027344,0.007812,0.03125,-0.003906,0.001953,-0.003906
595143.0,1.660156,2.0625,9.414062,-0.011719,0.007812,-0.007812,0.001953,0.003906,0.0
595163.0,1.621094,2.0625,9.414062,-0.011719,0.007812,-0.007812,-0.005859,0.003906,0.0
595174.0,1.621094,2.0625,9.414062,-0.011719,0.007812,-0.007812,0.0,0.005859,0.0
595188.0,1.621094,2.0625,9.375,-0.011719,0.007812,-0.007812,0.0,0.003906,0.0
595204.0,1.621094,2.0625,9.414062,-0.011719,-0.03125,-0.007812,0.001953,0.003906,0.0
595226.0,1.621094,2.023438,9.457031,-0.003906,-0.03125,0.03125,-0.001953,0.003906,-0.001953
595243.0,1.621094,2.0625,9.375,0.035156,0.007812,-0.007812,0.001953,0.005859,-0.001953
595267.0,1.621094,2.0625,9.453125,-0.003906,0.007812,0.03125,-0.001953,0.005859,-0.001953
595284.0,1.621094,2.0625,9.414062,-0.042969,0.007812,0.03125,0.0,0.003906,0.001953
595298.0,1.542969,2.0625,9.492188,0.109375,-0.070312,-0.085938,-0.003906,-0.003906,0.0
595323.0,1.621094,2.0625,9.375,0.042969,0.015625,-0.007812,0.003906,0.003906,-0.003906
595346.0,1.621094,2.023438,9.457031,0.003906,-0.03125,0.023438,0.003906,-0.001953,0.001953
595363.0,1.621094,2.023438,9.417969,-0.035156,0.007812,-0.015625,-0.001953,-0.001953,0.0
595383.0,1.621094,2.0625,9.414062,0.003906,0.007812,-0.015625,-0.001953,-0.003906,-0.001953
595403.0,1.621094,2.0625,9.414062,0.003906,0.007812,0.023438,-0.003906,-0.003906,0.0
595423.0,1.621094,2.0625,9.414062,0.003906,0.007812,0.023438,-0.003906,-0.005859,-0.001953
595443.0,1.621094,2.023438,9.417969,0.003906,0.007812,-0.015625,-0.001953,-0.007812,0.0
595473.0,1.660156,2.0625,9.414062,0.003906,0.007812,-0.054688,-0.001953,-0.013672,0.003906
595496.0,1.660156,2.0625,9.414062,0.035156,0.007812,-0.007812,-0.001953,-0.011719,0.003906
595513.0,1.621094,2.023438,9.417969,0.035156,-0.03125,-0.007812,-0.003906,-0.013672,0.0
595528.0,1.660156,2.0625,9.414062,-0.003906,-0.03125,-0.007812,-0.003906,-0.009766,0.001953
595567.0,1.621094,2.0625,9.414062,-0.011719,0.007812,0.0,0.001953,-0.013672,0.0
595583.0,1.660156,2.0625,9.414062,0.027344,0.007812,0.0,-0.001953,-0.013672,0.003906
595606.0,1.660156,2.0625,9.453125,0.019531,0.007812,0.039062,0.003906,-0.015625,0.0
595636.0,1.660156,2.101562,9.414062,0.019531,0.046875,0.0,0.001953,-0.011719,0.001953
595653.0,1.660156,2.0625,9.414062,0.019531,0.007812,0.0,0.001953,-0.013672,0.001953
595675.0,1.660156,2.0625,9.414062,0.011719,0.007812,0.0,0.001953,-0.009766,0.003906
595716.0,1.660156,2.023438,9.417969,0.003906,-0.03125,0.0,0.001953,-0.009766,0.003906
595733.0,1.660156,2.0625,9.414062,0.003906,0.007812,0.0,0.001953,-0.011719,0.005859
595755.0,1.695312,2.0625,9.453125,0.03125,0.007812,0.039062,0.0,-0.009766,0.005859
595793.0,1.695312,2.023438,9.417969,-0.011719,-0.03125,0.0,0.001953,-0.011719,0.001953
595813.0,1.660156,2.0625,9.414062,0.023438,0.007812,0.0,0.0,-0.009766,0.001953
595827.0,1.695312,2.0625,9.414062,0.023438,0.007812,0.0,0.001953,-0.007812,0.003906
595865.0,1.695312,2.0625,9.453125,0.023438,0.007812,0.039062,0.0,-0.007812,0.001953
595882.0,1.695312,2.0625,9.414062,0.023438,0.007812,0.039062,-0.003906,-0.003906,0.001953
595905.0,1.695312,2.0625,9.300781,0.023438,0.007812,-0.117188,-0.001953,0.001953,0.001953
595922.0,1.621094,2.0625,9.375,0.023438,0.007812,0.078125,-0.003906,-0.009766,0.001953
595943.0,1.695312,2.0625,9.375,0.023438,-0.03125,0.046875,0.0,-0.007812,0.001953
595962.0,1.734375,2.023438,9.414062,0.023438,0.007812,-0.039062,-0.001953,-0.007812,0.0
595976.0,1.695312,2.023438,9.417969,0.023438,0.007812,0.0,-0.001953,-0.003906,0.001953
595992.0,1.660156,2.023438,9.417969,0.015625,0.007812,0.0,0.0,-0.003906,0.0
596015.0,1.695312,2.0625,9.453125,0.015625,0.007812,0.039062,-0.001953,-0.003906,0.003906
596032.0,1.660156,2.023438,9.417969,-0.019531,-0.03125,0.0,-0.005859,-0.003906,0.001953
596054.0,1.695312,2.0625,9.375,0.015625,0.007812,-0.039062,-0.001953,0.0,0.0
596086.0,1.660156,2.0625,9.414062,-0.019531,0.007812,0.0,-0.001953,-0.001953,0.0
596102.0,1.695312,2.023438,9.417969,0.015625,-0.015625,0.0,0.003906,0.001953,0.0
596126.0,1.660156,2.0625,9.414062,-0.019531,0.023438,0.0,-0.001953,0.001953,-0.001953
596143.0,1.695312,2.0625,9.414062,0.015625,0.023438,0.0,0.003906,-0.003906,0.001953
596165.0,1.695312,2.0625,9.414062,0.015625,0.023438,0.0,0.0,0.0,0.0
596197.0,1.695312,2.023438,9.417969,0.015625,-0.023438,0.0,0.0,0.003906,-0.003906
596222.0,1.695312,2.023438,9.417969,0.015625,0.015625,0.0,0.0,0.005859,-0.005859
596242.0,1.695312,2.023438,9.417969,-0.019531,0.015625,0.0,0.0,0.005859,-0.001953
596262.0,1.660156,2.0625,9.414062,0.015625,-0.023438,0.0,0.0,0.003906,-0.001953
596275.0,1.695312,2.023438,9.417969,0.015625,-0.023438,0.0,0.001953,0.007812,0.0
596292.0,1.660156,2.0625,9.414062,-0.019531,-0.023438,0.0,-0.003906,0.001953,-0.005859
596315.0,1.660156,2.0625,9.414062,-0.011719,0.015625,0.0,0.0,0.001953,-0.001953
596332.0,1.695312,2.0625,9.453125,-0.011719,0.015625,0.0,0.001953,0.003906,0.0
596355.0,1.695312,2.0625,9.414062,0.023438,0.015625,0.0,-0.005859,-0.001953,-0.001953
596372.0,1.660156,2.0625,9.414062,-0.011719,0.015625,0.0,0.003906,0.003906,0.001953
596386.0,1.660156,2.0625,9.414062,-0.011719,0.015625,0.0,0.001953,0.003906,0.0
596401.0,1.695312,2.023438,9.417969,-0.011719,-0.023438,0.039062,0.001953,0.003906,-0.001953
596425.0,1.660156,2.023438,9.417969,-0.011719,-0.023438,0.0,0.003906,0.001953,0.0
596441.0,1.695312,2.0625,9.414062,-0.011719,0.015625,0.0,0.001953,0.003906,-0.001953
596465.0,1.660156,2.0625,9.414062,-0.011719,0.015625,0.0,0.0,0.001953,0.0
596481.0,1.695312,2.023438,9.457031,-0.003906,-0.023438,0.039062,0.001953,0.003906,0.001953
596504.0,1.695312,2.0625,9.453125,0.03125,0.015625,0.039062,0.003906,0.001953,0.0
596521.0,1.660156,2.0625,9.414062,0.03125,0.015625,0.0,-0.001953,0.001953,-0.001953
596541.0,1.660156,2.0625,9.414062,-0.003906,0.015625,0.0,0.0,0.003906,0.001953
596561.0,1.695312,2.0625,9.414062,-0.003906,-0.023438,-0.007812,0.001953,0.001953,0.001953
596575.0,1.695312,2.023438,9.417969,0.03125,-0.023438,-0.007812,-0.001953,0.001953,0.0
596591.0,1.695312,2.0625,9.414062,-0.003906,0.015625,-0.007812,0.001953,0.003906,0.0
596615.0,1.660156,2.0625,9.414062,-0.003906,0.015625,0.0,0.0,0.001953,0.0
596631.0,1.695312,2.0625,9.453125,-0.003906,-0.023438,0.0,-0.003906,0.003906,0.0
596655.0,1.660156,2.0625,9.492188,-0.003906,0.015625,0.070312,-0.001953,0.001953,0.0
596671.0,1.695312,2.0625,9.414062,-0.003906,0.015625,-0.007812,-0.003906,0.003906,-0.001953
596685.0,1.695312,2.023438,9.378906,0.03125,-0.023438,-0.007812,-0.003906,0.003906,0.0
596701.0,1.695312,2.023438,9.417969,0.03125,-0.023438,-0.007812,0.0,0.005859,-0.005859
596724.0,1.660156,2.023438,9.417969,-0.011719,-0.023438,-0.007812,-0.001953,0.005859,-0.001953
596741.0,1.660156,2.0625,9.375,-0.003906,0.015625,-0.007812,0.0,0.005859,-0.001953
596764.0,1.660156,2.0625,9.414062,-0.003906,0.015625,-0.007812,0.001953,0.007812,-0.001953
596796.0,1.660156,2.0625,9.414062,-0.003906,0.015625,0.0,0.001953,0.007812,0.001953
596834.0,1.660156,2.0625,9.414062,-0.003906,0.015625,0.0,0.0,0.007812,0.0
596850.0,1.660156,2.0625,9.453125,-0.003906,0.015625,0.0,-0.001953,0.007812,0.001953
596874.0,1.660156,2.0625,9.453125,0.003906,0.015625,0.03125,-0.001953,0.007812,0.001953
596890.0,1.660156,2.023438,9.417969,0.003906,0.015625,-0.007812,-0.001953,0.007812,0.0
596914.0,1.660156,2.023438,9.417969,0.003906,-0.023438,-0.007812,0.001953,0.005859,0.001953
596931.0,1.660156,2.023438,9.417969,0.003906,0.015625,-0.007812,-0.001953,0.003906,0.0
596954.0,1.695312,2.0625,9.414062,0.039062,0.015625,-0.007812,0.001953,0.007812,0.0
596971.0,1.660156,2.0625,9.414062,0.003906,0.015625,0.03125,-0.001953,0.005859,0.0
596985.0,1.660156,2.023438,9.417969,0.011719,0.015625,-0.046875,0.001953,0.007812,-0.001953
597001.0,1.660156,2.0625,9.414062,0.011719,0.015625,-0.007812,0.001953,0.007812,0.003906
597023.0,1.660156,2.023438,9.417969,0.011719,-0.03125,-0.007812,0.0,0.005859,-0.001953
597064.0,1.660156,2.0625,9.414062,0.011719,0.007812,-0.007812,-0.003906,0.003906,-0.001953
597081.0,1.621094,2.023438,9.457031,0.011719,0.007812,-0.007812,0.003906,0.007812,-0.001953
597095.0,1.660156,2.023438,9.417969,0.019531,-0.03125,0.03125,0.001953,0.005859,0.0
597111.0,1.660156,2.023438,9.457031,-0.019531,0.007812,-0.007812,0.003906,0.007812,-0.001953
597135.0,1.660156,2.0625,9.414062,0.019531,0.015625,0.03125,0.001953,0.005859,0.0
597150.0,1.660156,2.0625,9.414062,0.019531,0.015625,-0.046875,-0.001953,0.005859,0.0
597174.0,1.621094,2.0625,9.414062,-0.019531,0.007812,-0.007812,-0.003906,0.001953,0.0
597190.0,1.621094,2.0625,9.414062,0.019531,0.007812,0.03125,-0.001953,0.005859,-0.001953
597213.0,1.621094,2.0625,9.414062,-0.011719,0.007812,-0.007812,0.001953,0.003906,0.001953
597230.0,1.660156,2.0625,9.453125,0.027344,0.007812,-0.007812,0.003906,0.007812,-0.001953
597253.0,1.621094,2.0625,9.414062,-0.011719,0.007812,-0.007812,-0.001953,0.005859,0.001953
597285.0,1.621094,2.0625,9.414062,0.027344,-0.03125,-0.007812,-0.001953,0.005859,-0.001953
597299.0,1.660156,2.023438,9.417969,0.027344,0.007812,0.03125,0.0,0.007812,0.0
597323.0,1.660156,2.0625,9.414062,0.027344,0.015625,-0.007812,-0.001953,0.003906,0.0
597363.0,1.621094,2.0625,9.414062,-0.003906,0.007812,-0.007812,0.001953,0.005859,0.0
597380.0,1.621094,2.0625,9.453125,-0.003906,-0.03125,0.03125,0.003906,0.009766,0.0
597403.0,1.660156,2.0625,9.414062,0.035156,0.007812,-0.007812,0.0,0.005859,-0.001953
597420.0,1.660156,2.0625,9.414062,0.035156,-0.03125,0.03125,0.001953,0.005859,-0.001953
597434.0,1.621094,2.0625,9.453125,-0.011719,0.007812,-0.007812,0.003906,0.007812,-0.001953
597449.0,1.621094,2.0625,9.414062,-0.011719,-0.03125,-0.007812,0.003906,0.005859,0.0
597474.0,1.621094,2.0625,9.414062,-0.003906,0.007812,-0.007812,0.001953,0.007812,-0.001953
597490.0,1.621094,2.0625,9.453125,-0.003906,0.007812,-0.007812,0.001953,0.007812,0.0
597512.0,1.621094,2.023438,9.457031,-0.003906,-0.03125,0.03125,0.0,0.007812,0.0
597552.0,1.621094,2.0625,9.414062,-0.003906,0.007812,-0.007812,-0.001953,0.001953,-0.003906
597582.0,1.621094,2.0625,9.414062,-0.003906,0.007812,-0.015625,0.001953,0.009766,-0.001953
597599.0,1.621094,2.0625,9.453125,0.003906,-0.023438,0.023438,0.001953,0.005859,0.0
597623.0,1.542969,2.0625,9.453125,-0.074219,0.007812,0.023438,-0.001953,0.0,-0.001953
597639.0,1.621094,2.0625,9.414062,0.042969,0.007812,0.023438,-0.003906,0.005859,-0.001953
597662.0,1.582031,2.0625,9.414062,-0.035156,0.015625,-0.015625,-0.001953,0.003906,0.0
597679.0,1.582031,2.0625,9.414062,0.003906,-0.023438,-0.015625,0.001953,0.0,-0.001953
597702.0,1.621094,2.0625,9.453125,0.011719,0.015625,0.023438,0.003906,0.0,0.0
597734.0,1.621094,2.023438,9.417969,0.011719,-0.03125,-0.015625,-0.001953,-0.001953,0.0
597749.0,1.582031,2.023438,9.417969,0.011719,-0.03125,0.015625,-0.003906,-0.001953,0.0
597782.0,1.621094,2.0625,9.414062,0.011719,0.007812,-0.023438,0.0,-0.001953,0.0
597812.0,1.621094,2.0625,9.414062,0.011719,0.007812,-0.023438,0.001953,-0.001953,0.0
597829.0,1.621094,2.023438,9.417969,0.011719,0.007812,0.015625,0.001953,-0.001953,0.001953
597852.0,1.621094,2.0625,9.453125,0.011719,0.007812,0.015625,0.0,-0.003906,0.0
597869.0,1.621094,2.0625,9.453125,0.011719,0.007812,-0.023438,0.001953,-0.003906,0.0
597884.0,1.621094,2.0625,9.453125,-0.027344,0.007812,0.015625,0.0,-0.003906,0.0
597899.0,1.621094,2.0625,9.453125,0.003906,0.007812,-0.023438,-0.001953,-0.007812,0.001953
597922.0,1.621094,2.0625,9.453125,0.003906,0.007812,0.023438,-0.001953,-0.009766,0.0
597939.0,1.621094,2.0625,9.453125,0.003906,-0.03125,0.023438,-0.001953,-0.009766,0.001953
597962.0,1.621094,2.0625,9.414062,0.003906,0.007812,-0.015625,-0.001953,-0.009766,0.001953
597979.0,1.621094,2.023438,9.457031,-0.042969,0.007812,-0.054688,-0.003906,-0.017578,0.001953
597994.0,1.660156,2.0625,9.414062,-0.003906,0.007812,0.023438,-0.001953,-0.015625,0.003906
598018.0,1.621094,2.023438,9.417969,-0.003906,0.015625,-0.015625,0.001953,-0.017578,0.005859
598038.0,1.621094,2.0625,9.414062,-0.011719,-0.023438,-0.015625,0.001953,-0.017578,0.0
598058.0,1.660156,2.0625,9.414062,-0.011719,0.007812,-0.015625,0.001953,-0.019531,0.003906
598078.0,1.621094,2.0625,9.453125,0.027344,0.007812,-0.015625,0.0,-0.017578,0.003906
598109.0,1.660156,2.0625,9.414062,-0.019531,0.007812,-0.015625,-0.001953,-0.015625,0.003906
598129.0,1.660156,2.0625,9.453125,-0.019531,0.015625,0.023438,-0.005859,-0.013672,0.001953
598151.0,1.660156,2.023438,9.417969,0.011719,-0.023438,-0.015625,-0.003906,-0.011719,0.003906
598183.0,1.660156,2.023438,9.457031,0.003906,-0.023438,0.023438,0.0,-0.011719,0.005859
598198.0,1.621094,2.0625,9.414062,0.003906,-0.023438,0.023438,-0.003906,-0.011719,0.003906
598222.0,1.621094,2.0625,9.414062,-0.027344,0.015625,-0.007812,-0.001953,-0.007812,0.001953
598238.0,1.660156,2.0625,9.414062,0.011719,0.015625,-0.015625,0.0,-0.005859,0.0
598261.0,1.660156,2.0625,9.414062,0.011719,0.015625,-0.015625,0.0,-0.005859,0.001953
598301.0,1.660156,2.023438,9.457031,0.003906,-0.023438,0.03125,0.001953,-0.001953,0.001953
598318.0,1.660156,2.0625,9.414062,0.011719,-0.023438,-0.015625,0.0,0.0,0.001953
598338.0,1.660156,2.0625,9.414062,-0.027344,-0.023438,-0.015625,0.001953,0.0,0.001953
598358.0,1.660156,2.0625,9.414062,0.011719,0.015625,0.023438,-0.003906,0.001953,0.0
598378.0,1.660156,2.023438,9.417969,0.011719,-0.023438,0.023438,0.001953,0.001953,-0.001953
598398.0,1.660156,2.023438,9.417969,0.011719,-0.023438,-0.015625,0.001953,0.001953,0.0
598417.0,1.660156,2.0625,9.414062,0.011719,0.015625,-0.015625,-0.001953,0.001953,-0.001953
598429.0,1.660156,2.0625,9.414062,0.011719,0.015625,-0.015625,0.001953,-0.001953,-0.003906
598443.0,1.660156,2.0625,9.414062,0.039062,0.015625,-0.007812,0.001953,0.0,-0.001953
598458.0,1.660156,2.023438,9.417969,0.011719,0.015625,-0.007812,0.001953,0.001953,0.0
598481.0,1.660156,2.023438,9.457031,0.011719,-0.023438,0.03125,0.0,0.001953,-0.001953
598499.0,1.660156,2.0625,9.453125,0.011719,-0.023438,-0.015625,-0.001953,0.001953,0.001953
598521.0,1.621094,2.0625,9.414062,-0.027344,0.015625,-0.015625,0.0,0.001953,-0.001953
598561.0,1.660156,2.0625,9.453125,0.011719,0.015625,0.023438,-0.005859,-0.001953,0.0
598592.0,1.660156,2.023438,9.417969,-0.027344,-0.023438,0.023438,-0.001953,0.001953,0.0
598618.0,1.660156,2.0625,9.414062,0.011719,0.015625,-0.015625,0.001953,0.003906,0.001953
598657.0,1.660156,2.0625,9.414062,0.011719,0.015625,-0.015625,-0.001953,0.0,-0.001953
598678.0,1.621094,2.023438,9.378906,-0.027344,-0.023438,-0.015625,0.001953,-0.001953,-0.001953
598711.0,1.660156,2.023438,9.457031,0.011719,-0.023438,0.023438,0.001953,-0.001953,-0.001953
598727.0,1.660156,2.0625,9.453125,0.011719,-0.023438,0.023438,-0.001953,0.001953,0.0
598750.0,1.660156,2.0625,9.453125,0.011719,0.015625,0.023438,-0.001953,-0.001953,-0.001953
598768.0,1.660156,2.0625,9.414062,0.011719,0.015625,-0.054688,0.001953,-0.001953,0.001953
598782.0,1.660156,2.0625,9.414062,0.011719,0.015625,-0.015625,0.0,-0.001953,-0.001953
598797.0,1.621094,2.023438,9.417969,0.011719,0.015625,0.023438,0.001953,0.001953,0.0
598821.0,1.660156,2.0625,9.414062,0.011719,0.015625,-0.015625,0.001953,-0.001953,0.0
598837.0,1.660156,2.0625,9.414062,-0.027344,0.015625,-0.015625,0.001953,-0.001953,0.001953
598861.0,1.660156,2.0625,9.414062,0.011719,0.015625,-0.015625,0.0,-0.001953,0.001953
598877.0,1.660156,2.0625,9.453125,0.011719,0.015625,-0.015625,0.001953,-0.001953,0.0
598897.0,1.660156,2.023438,9.417969,0.003906,-0.023438,0.023438,-0.001953,-0.001953,0.0
598917.0,1.660156,2.0625,9.414062,0.003906,-0.023438,-0.015625,0.003906,-0.001953,0.0
598937.0,1.695312,2.023438,9.417969,0.003906,0.015625,0.023438,-0.001953,-0.003906,-0.003906
598957.0,1.660156,2.0625,9.414062,0.003906,0.015625,0.03125,0.001953,-0.003906,0.001953
598977.0,1.660156,2.0625,9.414062,0.003906,-0.023438,0.03125,-0.001953,-0.003906,0.0
598997.0,1.660156,2.023438,9.417969,0.003906,0.015625,-0.007812,-0.003906,-0.005859,-0.001953
599017.0,1.660156,2.023438,9.417969,0.039062,-0.023438,-0.015625,0.0,-0.001953,0.0
599041.0,1.695312,2.023438,9.417969,0.039062,-0.023438,-0.015625,-0.003906,-0.003906,0.0
599057.0,1.660156,2.023438,9.417969,0.003906,0.015625,-0.015625,0.001953,-0.001953,0.001953
599080.0,1.660156,2.023438,9.457031,-0.003906,-0.023438,0.023438,0.001953,-0.001953,0.0
599097.0,1.621094,2.0625,9.453125,-0.003906,-0.023438,-0.015625,-0.003906,-0.005859,0.0
599120.0,1.695312,2.0625,9.414062,0.03125,0.015625,-0.007812,0.0,-0.003906,0.001953
599136.0,1.660156,2.0625,9.414062,-0.003906,-0.023438,0.03125,0.001953,-0.003906,0.001953
599160.0,1.660156,2.023438,9.417969,-0.003906,-0.023438,-0.007812,0.0,-0.001953,0.0
599177.0,1.660156,2.0625,9.414062,-0.003906,-0.023438,-0.007812,-0.001953,0.001953,-0.001953
599191.0,1.660156,2.023438,9.417969,-0.003906,0.015625,-0.007812,-0.001953,-0.001953,0.001953
599207.0,1.660156,2.023438,9.417969,-0.003906,-0.023438,-0.007812,0.0,-0.003906,0.0
599231.0,1.660156,2.023438,9.417969,-0.003906,-0.023438,-0.007812,-0.003906,-0.003906,0.0
599246.0,1.695312,2.023438,9.417969,0.03125,-0.023438,0.03125,0.0,-0.003906,0.0
599270.0,1.660156,2.023438,9.378906,-0.003906,-0.015625,-0.046875,-0.003906,-0.001953,0.0
599287.0,1.695312,2.0625,9.414062,-0.003906,-0.015625,0.0,0.003906,0.0,0.0
599309.0,1.660156,2.023438,9.417969,-0.011719,-0.015625,0.0,0.001953,0.0,0.001953
599340.0,1.695312,2.023438,9.417969,0.023438,-0.015625,0.0,0.003906,-0.001953,0.0
599357.0,1.695312,2.0625,9.414062,0.023438,-0.015625,0.0,0.001953,0.0,-0.001953
599381.0,1.660156,2.0625,9.414062,-0.011719,0.023438,0.0,-0.001953,0.0,0.0
599396.0,1.660156,2.023438,9.417969,-0.011719,-0.015625,0.039062,0.0,0.001953,0.0
599420.0,1.695312,2.0625,9.414062,0.023438,0.023438,0.0,0.0,0.001953,0.0
599437.0,1.660156,2.0625,9.414062,-0.011719,-0.015625,0.0,0.001953,0.001953,0.0
599460.0,1.660156,2.023438,9.417969,-0.011719,-0.015625,0.0,0.001953,0.0,-0.001953
599476.0,1.660156,2.0625,9.414062,-0.011719,0.023438,0.0,-0.001953,0.0,0.001953
599496.0,1.660156,2.0625,9.375,-0.011719,0.023438,0.0,-0.001953,-0.001953,0.003906
599516.0,1.660156,2.0625,9.453125,0.023438,-0.015625,0.0,-0.001953,0.001953,0.0
599536.0,1.660156,2.023438,9.417969,0.023438,-0.015625,0.0,0.0,0.0,-0.001953
599576.0,1.660156,2.0625,9.414062,0.023438,0.023438,0.039062,0.0,0.001953,0.001953
599596.0,1.660156,2.0625,9.414062,-0.011719,0.023438,0.0,-0.001953,0.001953,0.001953
599616.0,1.660156,2.023438,9.457031,-0.011719,-0.015625,-0.007812,0.0,0.001953,-0.001953
599639.0,1.660156,2.023438,9.378906,-0.003906,-0.015625,-0.046875,0.0,0.003906,-0.003906
599655.0,1.660156,2.0625,9.375,-0.003906,-0.015625,-0.007812,-0.003906,0.001953,0.0
599679.0,1.660156,2.023438,9.417969,-0.003906,-0.015625,-0.007812,-0.001953,0.001953,0.0
599695.0,1.695312,2.0625,9.375,-0.003906,-0.015625,-0.046875,-0.003906,0.003906,-0.001953
599720.0,1.660156,2.0625,9.375,-0.003906,0.023438,-0.046875,0.001953,0.007812,-0.001953
599735.0,1.582031,2.023438,9.339844,0.03125,0.023438,0.03125,0.0,0.005859,-0.005859
599759.0,1.660156,1.984375,9.457031,0.003906,-0.054688,0.03125,0.0,0.007812,-0.001953
599785.0,1.660156,2.0625,9.414062,-0.035156,0.023438,0.03125,0.0,0.003906,-0.001953
599806.0,1.660156,2.023438,9.417969,0.003906,0.023438,-0.046875,-0.001953,0.003906,0.0
599829.0,1.660156,2.0625,9.414062,0.003906,0.023438,-0.007812,0.0,0.003906,0.0
599846.0,1.660156,2.023438,9.457031,0.003906,-0.015625,-0.007812,-0.001953,0.003906,0.001953
599869.0,1.660156,2.0625,9.414062,0.003906,0.023438,-0.007812,-0.001953,0.003906,0.0
599886.0,1.660156,2.0625,9.414062,0.003906,0.023438,0.03125,-0.001953,0.003906,0.0
599909.0,1.660156,2.023438,9.417969,0.003906,-0.015625,-0.007812,-0.003906,0.001953,0.0
599926.0,1.660156,2.023438,9.417969,0.003906,-0.015625,0.03125,0.001953,0.003906,0.0
599941.0,1.660156,2.023438,9.457031,0.003906,0.023438,-0.007812,0.003906,0.003906,-0.001953
599966.0,1.660156,2.023438,9.417969,0.003906,-0.015625,-0.007812,0.001953,0.005859,-0.001953
599980.0,1.660156,2.023438,9.417969,0.003906,-0.015625,-0.007812,0.001953,0.005859,0.0
599995.0,1.660156,2.0625,9.414062,0.003906,-0.015625,-0.007812,0.001953,0.005859,0.001953
600018.0,1.660156,2.023438,9.417969,0.003906,-0.015625,-0.007812,-0.001953,0.005859,0.001953
600058.0,1.621094,2.023438,9.417969,-0.027344,-0.015625,-0.007812,0.0,0.005859,-0.001953
600075.0,1.621094,2.023438,9.417969,0.046875,0.023438,-0.007812,0.0,0.003906,0.0
600095.0,1.621094,2.023438,9.417969,0.011719,-0.015625,-0.007812,-0.003906,0.005859,0.0
600115.0,1.621094,2.023438,9.417969,0.011719,-0.015625,0.0,-0.003906,0.005859,-0.001953
600129.0,1.660156,2.023438,9.417969,0.011719,-0.015625,0.0,0.0,0.005859,0.0
600145.0,1.660156,2.023438,9.417969,0.019531,-0.015625,-0.039062,0.001953,0.005859,0.0
600186.0,1.621094,2.0625,9.414062,0.019531,-0.007812,0.0,-0.001953,0.007812,0.0
600200.0,1.660156,2.023438,9.457031,-0.019531,-0.007812,0.0,0.0,0.005859,0.0
600215.0,1.660156,2.023438,9.417969,0.019531,-0.015625,0.0,-0.001953,0.005859,0.0
600238.0,1.660156,2.023438,9.417969,0.019531,-0.007812,0.0,0.0,0.003906,-0.005859
600255.0,1.660156,2.0625,9.453125,0.019531,-0.007812,0.039062,0.003906,0.005859,-0.001953
600279.0,1.621094,2.0625,9.414062,-0.019531,0.03125,0.0,0.0,0.007812,-0.001953
600296.0,1.660156,2.0625,9.414062,-0.011719,-0.015625,0.039062,-0.001953,0.007812,0.001953
600318.0,1.621094,2.0625,9.414062,-0.011719,0.03125,-0.007812,-0.001953,0.005859,-0.001953
600335.0,1.660156,2.023438,9.417969,-0.011719,0.03125,0.03125,0.0,0.007812,0.0
600358.0,1.621094,2.023438,9.417969,-0.011719,-0.007812,0.0,0.0,0.005859,0.0
600388.0,1.621094,2.0625,9.414062,-0.011719,0.03125,-0.007812,0.001953,0.003906,0.001953
600405.0,1.621094,2.023438,9.457031,-0.011719,-0.007812,-0.007812,0.0,0.003906,0.001953
600428.0,1.660156,2.023438,9.417969,0.035156,-0.007812,-0.007812,0.001953,0.003906,0.0
600445.0,1.621094,2.0625,9.414062,-0.003906,-0.015625,-0.007812,-0.001953,0.001953,0.001953
600468.0,1.660156,2.023438,9.457031,0.035156,-0.015625,0.023438,-0.001953,0.001953,0.0
600485.0,1.621094,2.023438,9.457031,-0.003906,-0.015625,0.023438,-0.003906,0.003906,0.001953
600508.0,1.621094,2.0625,9.414062,-0.003906,0.023438,-0.015625,-0.001953,0.003906,0.0
600525.0,1.621094,2.023438,9.457031,-0.003906,0.023438,-0.015625,-0.001953,0.003906,0.001953
600540.0,1.621094,2.023438,9.457031,-0.003906,-0.007812,-0.015625,0.0,0.001953,-0.001953
600578.0,1.621094,2.023438,9.417969,-0.003906,-0.015625,-0.015625,0.001953,0.001953,-0.001953
600594.0,1.621094,2.023438,9.417969,-0.003906,-0.015625,-0.015625,0.001953,0.003906,0.0
600617.0,1.660156,2.0625,9.414062,0.035156,0.023438,-0.015625,0.0,0.003906,-0.001953
600649.0,1.621094,2.0625,9.453125,-0.003906,0.023438,0.023438,0.001953,0.003906,-0.001953
600675.0,1.621094,2.0625,9.414062,0.042969,-0.015625,-0.015625,0.0,0.003906,0.0
600688.0,1.582031,2.023438,9.417969,0.003906,-0.015625,0.023438,0.003906,0.003906,0.0
600704.0,1.621094,2.023438,9.457031,0.003906,0.023438,-0.015625,0.001953,0.001953,0.0
600727.0,1.621094,2.0625,9.453125,0.003906,0.023438,0.023438,0.001953,0.005859,0.0
600744.0,1.621094,2.0625,9.414062,0.003906,-0.015625,-0.015625,0.001953,0.005859,-0.001953
600768.0,1.621094,2.023438,9.417969,0.003906,-0.015625,-0.015625,-0.001953,0.003906,0.0
600784.0,1.621094,2.023438,9.457031,0.003906,-0.015625,-0.015625,0.0,0.003906,0.0
600807.0,1.660156,2.023438,9.457031,0.042969,-0.015625,0.023438,0.003906,0.003906,0.0
600824.0,1.621094,2.0625,9.453125,0.003906,-0.015625,0.023438,0.001953,0.003906,0.001953
600838.0,1.621094,2.0625,9.453125,0.011719,0.023438,-0.015625,-0.001953,0.001953,-0.001953
600853.0,1.621094,2.023438,9.417969,0.011719,-0.015625,-0.015625,0.001953,0.001953,-0.001953
600877.0,1.621094,2.0625,9.414062,0.011719,0.023438,-0.015625,0.001953,0.001953,0.001953
600893.0,1.621094,2.0625,9.414062,0.011719,-0.015625,-0.015625,-0.001953,0.001953,0.0
600933.0,1.621094,2.0625,9.414062,0.003906,0.023438,0.023438,0.0,0.001953,0.0
600957.0,1.621094,2.0625,9.414062,0.003906,0.023438,-0.015625,0.001953,0.0,0.0
600974.0,1.621094,2.0625,9.414062,0.003906,-0.015625,-0.015625,-0.003906,0.003906,0.0
600988.0,1.621094,2.023438,9.417969,0.003906,-0.023438,0.023438,-0.001953,0.001953,0.0
601003.0,1.582031,2.0625,9.414062,0.003906,0.015625,-0.015625,-0.001953,0.001953,0.0
601027.0,1.621094,2.023438,9.417969,0.003906,-0.023438,-0.015625,-0.005859,0.003906,0.0
601044.0,1.621094,2.0625,9.453125,0.003906,0.015625,-0.015625,-0.001953,0.0,0.001953
601067.0,1.621094,2.023438,9.457031,0.003906,-0.023438,0.023438,0.001953,0.003906,0.0
601084.0,1.621094,2.0625,9.453125,0.003906,0.015625,-0.015625,0.0,0.001953,0.0
601107.0,1.621094,2.023438,9.417969,0.003906,-0.023438,-0.015625,-0.003906,0.0,0.0
601124.0,1.582031,2.023438,9.496094,0.003906,0.015625,-0.015625,0.001953,0.0,0.001953
601138.0,1.621094,2.023438,9.457031,0.003906,0.015625,0.023438,-0.003906,0.001953,-0.001953
601153.0,1.621094,2.0625,9.414062,0.003906,-0.023438,-0.015625,0.0,0.0,0.0
601177.0,1.621094,2.023438,9.417969,0.011719,-0.023438,-0.015625,0.0,0.001953,-0.003906
601193.0,1.621094,2.023438,9.417969,0.003906,0.015625,0.023438,0.001953,0.001953,-0.001953
601217.0,1.621094,2.0625,9.414062,0.011719,0.015625,-0.015625,-0.001953,0.003906,0.001953
601233.0,1.621094,2.023438,9.457031,0.011719,-0.023438,0.023438,0.003906,0.0,0.001953
601257.0,1.621094,2.023438,9.417969,0.011719,-0.023438,-0.015625,0.0,0.001953,0.0
601274.0,1.582031,2.0625,9.414062,-0.027344,-0.023438,0.023438,0.001953,0.0,0.001953
601288.0,1.621094,2.0625,9.453125,0.011719,-0.023438,0.023438,-0.001953,0.001953,0.0
601327.0,1.621094,2.023438,9.457031,0.011719,-0.023438,0.023438,0.003906,0.001953,0.0
601343.0,1.621094,2.0625,9.453125,-0.019531,-0.023438,-0.054688,0.001953,0.001953,0.0
601367.0,1.621094,2.023438,9.457031,0.019531,-0.023438,0.023438,-0.001953,-0.001953,0.0
601383.0,1.621094,2.0625,9.414062,-0.019531,0.015625,-0.015625,0.001953,0.001953,-0.001953
601406.0,1.621094,2.023438,9.417969,0.019531,-0.023438,-0.015625,0.0,0.001953,-0.001953
601423.0,1.621094,2.0625,9.414062,0.019531,-0.023438,0.023438,-0.003906,0.0,-0.003906
601437.0,1.582031,2.023438,9.417969,0.019531,-0.023438,0.023438,-0.003906,0.001953,0.0
601452.0,1.621094,2.023438,9.417969,0.011719,-0.023438,0.023438,-0.001953,0.001953,0.0
601476.0,1.621094,2.023438,9.417969,0.011719,-0.023438,-0.015625,-0.001953,0.0,0.0
601492.0,1.621094,2.0625,9.414062,0.011719,-0.023438,-0.015625,0.0,0.001953,0.0
601516.0,1.621094,2.023438,9.417969,0.011719,-0.023438,-0.015625,0.0,0.001953,-0.001953
601533.0,1.621094,2.023438,9.417969,0.011719,0.015625,0.023438,0.0,0.001953,-0.001953
601555.0,1.582031,2.0625,9.414062,-0.027344,0.015625,-0.015625,0.001953,0.0,0.0
601573.0,1.621094,2.0625,9.414062,0.011719,0.015625,0.023438,-0.001953,0.001953,0.0
601587.0,1.621094,2.0625,9.414062,0.011719,-0.023438,-0.015625,-0.001953,0.0,0.0
601602.0,1.621094,2.0625,9.414062,-0.027344,0.015625,-0.015625,0.001953,-0.013672,0.0
601626.0,1.582031,2.023438,9.457031,-0.027344,-0.023438,0.023438,0.001953,0.0,0.0
601643.0,1.582031,2.023438,9.417969,0.050781,-0.023438,-0.015625,0.001953,0.001953,0.0
601665.0,1.582031,2.0625,9.414062,-0.027344,0.015625,-0.015625,0.0,0.003906,0.0
601705.0,1.621094,2.023438,9.417969,0.011719,-0.023438,-0.015625,-0.003906,-0.001953,0.0
601723.0,1.621094,2.023438,9.457031,0.011719,0.015625,-0.015625,-0.001953,-0.001953,-0.001953
601737.0,1.582031,2.023438,9.457031,0.011719,0.015625,0.023438,0.001953,0.001953,0.0
601753.0,1.621094,2.0625,9.453125,0.011719,0.015625,-0.015625,0.001953,0.005859,0.0
601780.0,1.660156,2.0625,9.414062,0.050781,0.015625,-0.015625,0.0,0.001953,0.0
601793.0,1.621094,2.0625,9.414062,0.011719,0.015625,-0.015625,0.0,0.003906,0.0
601812.0,1.621094,2.023438,9.417969,-0.027344,-0.023438,-0.015625,0.0,0.003906,0.001953
601832.0,1.621094,2.0625,9.453125,0.011719,0.023438,-0.015625,-0.001953,-0.001953,0.0
601847.0,1.621094,2.0625,9.414062,0.011719,-0.015625,0.023438,0.001953,-0.001953,0.001953
601862.0,1.621094,2.0625,9.453125,0.011719,0.015625,-0.015625,-0.001953,0.0,0.0
601887.0,1.621094,2.0625,9.453125,0.011719,0.015625,0.023438,0.001953,0.0,0.0
601903.0,1.621094,2.0625,9.453125,0.011719,0.015625,0.023438,0.001953,-0.001953,0.0
601926.0,1.621094,2.0625,9.414062,0.011719,0.015625,-0.015625,-0.001953,-0.001953,0.0
601942.0,1.621094,2.0625,9.414062,0.011719,0.007812,-0.007812,0.0,-0.001953,0.0
601965.0,1.621094,2.0625,9.453125,0.011719,0.007812,0.03125,-0.001953,-0.001953,0.003906
601982.0,1.621094,2.0625,9.414062,0.011719,0.007812,-0.007812,0.001953,0.0,-0.001953
602022.0,1.582031,2.0625,9.453125,0.011719,-0.03125,-0.007812,0.001953,-0.001953,0.003906
602042.0,1.582031,2.0625,9.453125,0.011719,-0.03125,-0.007812,-0.003906,0.001953,0.0
602062.0,1.621094,2.0625,9.453125,-0.027344,0.015625,0.03125,0.001953,-0.001953,0.0
602082.0,1.621094,2.0625,9.453125,0.011719,0.015625,0.03125,-0.001953,-0.001953,0.0
602102.0,1.582031,2.0625,9.453125,0.011719,0.015625,0.03125,0.001953,0.0,0.001953
602147.0,1.621094,2.023438,9.457031,0.011719,0.007812,0.023438,0.0,-0.001953,0.001953
602186.0,1.621094,2.0625,9.453125,0.011719,0.007812,0.023438,0.0,-0.001953,0.0
602201.0,1.582031,2.0625,9.414062,0.011719,0.007812,-0.015625,-0.001953,-0.003906,0.0
602225.0,1.621094,2.0625,9.453125,0.011719,0.007812,0.023438,0.001953,-0.003906,0.003906
602242.0,1.621094,2.0625,9.414062,0.011719,-0.03125,0.023438,-0.001953,-0.001953,0.001953
602265.0,1.621094,2.023438,9.417969,0.011719,-0.03125,-0.015625,0.0,-0.003906,0.003906
602282.0,1.621094,2.023438,9.417969,0.011719,-0.03125,-0.015625,-0.001953,-0.001953,0.001953
602311.0,1.582031,2.0625,9.414062,0.011719,-0.03125,0.0625,0.001953,0.0,0.0
602336.0,1.621094,2.0625,9.453125,0.011719,0.007812,0.023438,0.001953,-0.001953,-0.001953
602351.0,1.621094,2.023438,9.417969,0.011719,-0.03125,0.023438,0.0,-0.001953,0.003906
602375.0,1.621094,2.023438,9.417969,0.011719,-0.023438,-0.015625,0.0,-0.003906,0.0
602391.0,1.621094,2.0625,9.414062,0.011719,-0.023438,0.023438,0.001953,-0.001953,0.001953
602415.0,1.621094,2.0625,9.453125,0.003906,0.015625,0.015625,0.003906,-0.003906,0.0
602431.0,1.621094,2.0625,9.414062,-0.035156,0.015625,0.015625,-0.001953,-0.001953,0.001953
602451.0,1.621094,2.0625,9.414062,0.011719,-0.023438,-0.023438,0.0,0.0,-0.001953
602471.0,1.621094,2.023438,9.457031,0.011719,0.015625,-0.023438,-0.001953,-0.001953,0.001953
602486.0,1.621094,2.0625,9.414062,0.003906,-0.023438,0.015625,-0.003906,-0.001953,-0.001953
602511.0,1.621094,2.023438,9.417969,0.003906,-0.023438,-0.023438,0.0,-0.001953,0.0
602531.0,1.621094,2.0625,9.414062,0.003906,0.015625,-0.023438,0.0,0.001953,0.0
602551.0,1.621094,2.0625,9.414062,0.003906,-0.023438,-0.023438,0.001953,0.001953,0.0
602570.0,1.621094,2.023438,9.457031,0.003906,0.015625,-0.023438,-0.001953,0.0,0.001953
602604.0,1.621094,2.0625,9.453125,0.003906,0.015625,0.015625,0.003906,0.003906,0.0
602621.0,1.621094,2.0625,9.414062,-0.035156,-0.023438,-0.023438,-0.001953,0.001953,-0.001953
602636.0,1.621094,2.023438,9.457031,0.011719,-0.023438,0.015625,0.001953,0.0,0.0
602650.0,1.621094,2.0625,9.414062,0.011719,0.015625,0.015625,0.003906,0.0,-0.001953
602675.0,1.621094,2.0625,9.453125,0.011719,0.015625,0.023438,0.003906,0.001953,0.0
602691.0,1.582031,2.023438,9.457031,0.011719,0.015625,-0.015625,-0.001953,0.001953,-0.001953
602706.0,1.582031,2.023438,9.417969,0.011719,0.015625,0.023438,0.001953,0.003906,0.001953
602731.0,1.621094,2.0625,9.453125,0.011719,-0.023438,-0.015625,-0.001953,0.001953,0.0
602750.0,1.621094,2.023438,9.417969,0.011719,-0.023438,0.023438,-0.003906,0.001953,0.0
602771.0,1.621094,2.0625,9.414062,-0.027344,-0.023438,-0.015625,0.001953,0.005859,-0.001953
602785.0,1.621094,2.0625,9.453125,0.011719,0.023438,-0.015625,0.001953,0.003906,-0.001953
602800.0,1.660156,2.023438,9.457031,0.011719,0.023438,-0.015625,-0.001953,0.001953,-0.001953
602823.0,1.621094,2.0625,9.414062,0.019531,0.023438,-0.015625,0.0,0.005859,0.0
602840.0,1.621094,2.023438,9.457031,0.019531,-0.015625,0.023438,0.001953,0.009766,-0.001953
602864.0,1.621094,2.0625,9.453125,0.019531,0.015625,0.023438,0.001953,0.007812,-0.001953
602881.0,1.582031,2.023438,9.457031,-0.058594,0.015625,-0.015625,0.0,0.003906,0.001953
602896.0,1.695312,2.023438,9.417969,-0.019531,-0.023438,0.023438,-0.003906,0.005859,0.0
602920.0,1.621094,2.023438,9.457031,-0.019531,0.015625,-0.015625,-0.001953,0.007812,0.0
602950.0,1.582031,2.023438,9.378906,-0.011719,0.015625,0.023438,-0.001953,0.007812,0.001953
602974.0,1.582031,2.0625,9.414062,-0.011719,0.023438,-0.015625,-0.001953,0.005859,-0.001953
602990.0,1.582031,2.023438,9.417969,0.066406,-0.015625,0.023438,0.0,0.003906,-0.001953
603013.0,1.582031,2.023438,9.417969,-0.011719,-0.015625,-0.015625,-0.001953,0.003906,-0.001953
603045.0,1.621094,2.0625,9.453125,0.027344,0.023438,0.023438,-0.001953,0.001953,0.0
603084.0,1.621094,2.0625,9.414062,0.035156,0.015625,-0.023438,0.0,0.001953,0.001953
603100.0,1.582031,2.023438,9.457031,0.035156,0.015625,-0.023438,0.0,0.003906,-0.001953
603124.0,1.582031,2.0625,9.453125,-0.003906,0.015625,0.015625,-0.003906,0.001953,0.0
603140.0,1.582031,1.945312,9.453125,0.035156,0.015625,-0.023438,0.0,-0.058594,-0.005859
603163.0,1.621094,2.0625,9.414062,0.027344,0.023438,-0.015625,-0.001953,0.007812,-0.001953
603180.0,1.621094,2.023438,9.417969,-0.011719,0.023438,-0.015625,-0.001953,0.003906,-0.001953
603196.0,1.542969,2.023438,9.417969,-0.011719,0.023438,-0.015625,0.003906,0.001953,-0.001953
603235.0,1.582031,2.0625,9.414062,0.019531,-0.023438,-0.015625,0.001953,0.007812,-0.003906
603249.0,1.582031,2.023438,9.417969,0.019531,0.015625,0.023438,0.005859,0.005859,-0.001953
603273.0,1.582031,2.023438,9.417969,-0.019531,-0.03125,-0.015625,0.005859,0.003906,-0.001953
603289.0,1.621094,2.023438,9.417969,0.019531,0.007812,-0.015625,-0.001953,-0.001953,-0.001953
603313.0,1.582031,2.0625,9.453125,-0.019531,0.007812,0.023438,0.003906,0.001953,-0.001953
603329.0,1.582031,2.0625,9.414062,-0.058594,0.007812,0.023438,0.001953,-0.001953,0.0
603344.0,1.582031,2.0625,9.414062,0.019531,0.007812,0.023438,0.001953,-0.003906,-0.001953
603360.0,1.621094,2.023438,9.457031,-0.019531,0.007812,-0.015625,-0.001953,-0.003906,0.0
603382.0,1.582031,2.0625,9.453125,-0.019531,0.015625,0.023438,-0.001953,-0.001953,0.001953
603423.0,1.582031,2.023438,9.417969,-0.011719,-0.03125,-0.007812,0.0,-0.003906,0.0
603440.0,1.582031,2.0625,9.414062,-0.011719,0.015625,-0.015625,0.001953,-0.007812,0.001953
603463.0,1.621094,2.0625,9.453125,0.019531,0.023438,0.023438,0.0,-0.007812,0.001953
603479.0,1.621094,2.0625,9.453125,0.019531,0.015625,-0.015625,-0.001953,-0.009766,0.001953
603499.0,1.621094,2.023438,9.417969,0.019531,0.007812,0.03125,0.003906,-0.007812,0.005859
603520.0,1.621094,2.0625,9.414062,-0.019531,-0.03125,0.03125,0.001953,-0.007812,0.001953
603534.0,1.582031,2.0625,9.414062,0.019531,-0.03125,-0.007812,-0.001953,-0.005859,0.0
603550.0,1.621094,2.023438,9.457031,-0.019531,-0.023438,-0.015625,0.001953,-0.007812,0.001953
603572.0,1.621094,2.0625,9.453125,0.011719,0.015625,0.023438,0.0,-0.007812,0.0
603589.0,1.621094,2.023438,9.457031,0.011719,0.015625,-0.015625,-0.001953,-0.003906,0.0
603612.0,1.621094,2.0625,9.453125,0.011719,0.023438,0.023438,-0.001953,-0.001953,0.0
603629.0,1.621094,2.023438,9.417969,0.011719,-0.015625,-0.015625,0.0,-0.001953,0.001953
603643.0,1.621094,2.0625,9.414062,-0.027344,-0.015625,0.023438,0.003906,-0.001953,0.0
603659.0,1.621094,2.0625,9.453125,0.011719,0.015625,-0.015625,-0.001953,0.001953,0.001953
603683.0,1.621094,2.023438,9.457031,0.011719,-0.015625,0.023438,0.001953,-0.001953,0.001953
603700.0,1.621094,2.0625,9.414062,0.011719,-0.015625,0.023438,0.001953,0.0,0.001953
603723.0,1.582031,2.0625,9.414062,-0.027344,0.015625,-0.007812,-0.003906,-0.001953,0.001953
603739.0,1.621094,2.0625,9.414062,0.011719,0.015625,-0.007812,-0.001953,0.001953,0.001953
603762.0,1.621094,2.023438,9.457031,0.011719,-0.015625,0.023438,-0.001953,-0.001953,0.003906
603799.0,1.621094,2.023438,9.417969,0.011719,0.023438,0.023438,-0.005859,-0.005859,0.001953
603819.0,1.621094,2.023438,9.417969,0.011719,-0.015625,-0.015625,-0.001953,-0.001953,-0.001953
603833.0,1.621094,2.023438,9.417969,0.011719,-0.015625,-0.015625,-0.001953,-0.003906,0.0
603848.0,1.621094,2.0625,9.414062,0.011719,-0.015625,-0.015625,0.0,-0.003906,-0.001953
603872.0,1.621094,2.0625,9.453125,0.011719,0.023438,0.023438,0.003906,-0.001953,-0.003906
603889.0,1.621094,2.0625,9.453125,0.011719,-0.015625,-0.015625,0.001953,0.001953,0.0
603911.0,1.621094,2.0625,9.414062,0.011719,0.023438,-0.015625,0.001953,-0.001953,0.001953
603929.0,1.621094,2.023438,9.457031,0.050781,-0.015625,-0.015625,0.003906,0.0,0.0
603949.0,1.621094,2.0625,9.414062,0.003906,0.023438,-0.015625,-0.001953,0.003906,0.0
603968.0,1.621094,2.0625,9.453125,0.003906,0.023438,-0.015625,-0.001953,0.001953,0.0
603988.0,1.582031,2.0625,9.414062,-0.035156,0.023438,-0.015625,0.001953,0.003906,0.0
604009.0,1.582031,2.0625,9.414062,0.003906,0.023438,-0.015625,0.001953,0.003906,-0.001953
604038.0,1.621094,2.023438,9.457031,0.011719,-0.015625,-0.015625,0.0,0.003906,0.0
604062.0,1.582031,2.0625,9.453125,-0.027344,0.023438,0.03125,0.0,0.003906,-0.001953
604079.0,1.621094,2.023438,9.417969,0.011719,-0.015625,-0.007812,0.001953,0.005859,0.0
604093.0,1.621094,2.0625,9.453125,0.011719,-0.015625,-0.007812,0.003906,0.003906,0.0
604108.0,1.582031,2.023438,9.457031,0.019531,-0.023438,0.023438,0.001953,0.003906,-0.001953
604132.0,1.621094,2.0625,9.414062,0.019531,0.015625,-0.015625,0.001953,0.003906,-0.001953
604148.0,1.582031,2.0625,9.414062,0.019531,-0.023438,0.023438,0.001953,0.005859,0.0
604172.0,1.582031,2.0625,9.414062,-0.019531,0.015625,-0.015625,0.003906,0.003906,0.0
604188.0,1.621094,2.0625,9.453125,-0.019531,-0.023438,0.023438,0.003906,0.001953,0.003906
604212.0,1.621094,2.023438,9.417969,0.019531,-0.023438,-0.015625,0.001953,0.0,0.001953
604229.0,1.621094,2.0625,9.453125,0.019531,-0.023438,0.023438,0.0,0.0,0.0
604243.0,1.621094,2.0625,9.453125,0.019531,0.015625,-0.015625,0.001953,-0.001953,-0.001953
604258.0,1.621094,2.0625,9.414062,0.019531,0.015625,0.023438,0.001953,0.001953,-0.001953
604281.0,1.582031,2.0625,9.453125,-0.019531,0.015625,0.023438,0.0,0.003906,0.0
604299.0,1.621094,2.0625,9.453125,0.019531,-0.023438,-0.015625,0.001953,0.001953,-0.001953
604321.0,1.621094,2.023438,9.417969,0.019531,-0.023438,-0.015625,0.0,0.001953,-0.001953
604338.0,1.621094,2.023438,9.457031,0.019531,0.015625,-0.015625,-0.001953,0.001953,-0.001953
604361.0,1.582031,2.0625,9.453125,-0.019531,0.015625,0.023438,0.001953,0.001953,0.0
604392.0,1.582031,2.0625,9.414062,-0.019531,0.015625,-0.015625,0.001953,0.003906,0.001953
604408.0,1.582031,2.023438,9.417969,0.019531,0.015625,0.023438,-0.001953,0.001953,0.0
604431.0,1.621094,2.0625,9.414062,0.019531,0.015625,-0.015625,-0.001953,0.001953,0.0
604448.0,1.621094,2.023438,9.417969,0.019531,-0.023438,0.0625,-0.003906,0.0,0.0
604470.0,1.582031,2.0625,9.414062,-0.027344,0.015625,-0.015625,-0.003906,0.001953,-0.001953
604487.0,1.582031,2.0625,9.414062,0.011719,0.023438,-0.015625,0.0,0.0,0.0
604510.0,1.582031,2.0625,9.414062,-0.019531,0.023438,-0.015625,-0.001953,0.0,-0.001953
604527.0,1.582031,2.023438,9.417969,-0.019531,0.023438,-0.015625,0.0,0.001953,0.0
604547.0,1.582031,2.023438,9.417969,-0.019531,0.015625,0.03125,0.001953,0.001953,0.0
604568.0,1.582031,2.023438,9.417969,0.019531,0.015625,0.03125,0.003906,0.003906,-0.001953
604581.0,1.621094,2.023438,9.457031,-0.019531,0.015625,0.03125,0.001953,0.001953,-0.001953
604598.0,1.582031,2.0625,9.414062,0.019531,0.015625,-0.007812,0.001953,0.003906,-0.001953
604621.0,1.621094,2.0625,9.453125,0.027344,0.015625,0.03125,-0.001953,0.005859,0.0
604637.0,1.582031,2.023438,9.417969,-0.011719,-0.023438,0.03125,-0.003906,0.003906,0.001953
604653.0,1.621094,2.0625,9.414062,-0.011719,-0.023438,-0.007812,-0.001953,0.001953,0.0
604690.0,1.621094,2.0625,9.453125,0.027344,0.015625,0.03125,-0.003906,0.0,0.001953
604700.0,1.582031,2.023438,9.457031,-0.011719,-0.023438,0.023438,-0.001953,0.001953,0.001953
604717.0,1.582031,2.0625,9.414062,-0.011719,0.015625,-0.015625,-0.001953,0.003906,-0.001953
604737.0,1.621094,2.023438,9.457031,-0.011719,0.015625,-0.023438,0.001953,0.003906,-0.001953
604758.0,1.582031,2.023438,9.457031,0.027344,-0.03125,0.015625,0.0,0.0,-0.001953
604771.0,1.582031,2.0625,9.414062,-0.011719,-0.03125,0.023438,-0.001953,0.001953,0.0
604788.0,1.582031,2.0625,9.453125,-0.011719,0.007812,0.023438,0.0,0.0,0.0
604802.0,1.582031,2.0625,9.414062,-0.011719,-0.03125,0.023438,0.001953,0.001953,0.001953
604842.0,1.582031,2.0625,9.453125,-0.011719,0.007812,0.015625,0.001953,-0.001953,0.001953
604880.0,1.582031,2.023438,9.457031,-0.011719,-0.015625,0.015625,-0.003906,-0.003906,0.0
604897.0,1.621094,2.023438,9.457031,-0.003906,0.023438,-0.023438,0.003906,-0.003906,0.003906
604920.0,1.621094,2.023438,9.417969,0.027344,-0.023438,-0.023438,0.0,-0.001953,0.001953
604937.0,1.582031,2.023438,9.457031,-0.011719,0.015625,0.015625,-0.001953,-0.005859,0.001953
604960.0,1.582031,2.0625,9.414062,-0.011719,0.015625,-0.023438,-0.005859,-0.003906,-0.003906
604990.0,1.621094,2.023438,9.417969,0.027344,-0.023438,-0.023438,-0.001953,-0.003906,0.0
605007.0,1.621094,2.0625,9.414062,-0.011719,-0.023438,0.015625,0.0,0.0,0.0
605031.0,1.582031,2.0625,9.453125,-0.019531,0.023438,0.023438,0.003906,0.003906,0.0
605047.0,1.621094,2.023438,9.417969,-0.019531,-0.015625,-0.015625,-0.001953,0.0,0.001953
605069.0,1.621094,2.023438,9.417969,0.019531,-0.015625,-0.015625,-0.001953,0.001953,-0.001953
605110.0,1.621094,2.023438,9.417969,0.019531,-0.015625,-0.015625,-0.001953,-0.001953,0.0
605127.0,1.621094,2.023438,9.417969,0.019531,0.023438,-0.015625,-0.001953,0.0,0.0
605146.0,1.582031,2.023438,9.417969,-0.019531,-0.015625,0.023438,0.001953,0.001953,0.0
605166.0,1.621094,2.023438,9.457031,0.019531,0.023438,-0.015625,0.001953,-0.001953,0.0
605186.0,1.621094,2.0625,9.414062,-0.019531,-0.015625,-0.015625,-0.001953,-0.001953,-0.001953
605206.0,1.621094,2.023438,9.457031,0.019531,0.023438,-0.015625,0.001953,-0.001953,0.001953
605227.0,1.621094,2.0625,9.414062,0.019531,-0.015625,-0.015625,0.001953,0.001953,0.001953
605260.0,1.621094,2.0625,9.414062,0.019531,0.023438,-0.015625,0.001953,0.0,-0.001953
605277.0,1.582031,2.0625,9.414062,-0.019531,0.023438,-0.015625,0.001953,0.003906,-0.001953
605291.0,1.582031,2.023438,9.457031,-0.019531,0.023438,-0.015625,0.001953,0.003906,0.0
605307.0,1.582031,2.023438,9.417969,-0.019531,0.023438,0.023438,0.001953,0.001953,0.001953
605329.0,1.621094,2.023438,9.457031,0.019531,-0.015625,0.023438,0.0,0.001953,0.0
605346.0,1.621094,2.0625,9.414062,0.019531,0.023438,0.023438,-0.003906,0.0,0.0
605370.0,1.582031,2.0625,9.414062,-0.011719,0.023438,-0.015625,0.001953,0.001953,0.0
605386.0,1.621094,2.023438,9.417969,-0.011719,-0.015625,0.023438,0.0,-0.001953,-0.001953
605409.0,1.582031,2.023438,9.417969,-0.019531,-0.015625,-0.007812,0.001953,-0.003906,-0.001953
605426.0,1.582031,2.023438,9.457031,-0.019531,-0.015625,-0.007812,-0.001953,-0.003906,0.0
605446.0,1.621094,2.023438,9.417969,-0.019531,-0.015625,-0.007812,-0.001953,-0.003906,-0.001953
605466.0,1.582031,2.023438,9.417969,-0.019531,0.023438,0.03125,0.0,-0.001953,0.001953
605486.0,1.621094,2.023438,9.417969,-0.019531,-0.015625,-0.007812,-0.001953,-0.003906,0.0
605506.0,1.582031,2.0625,9.453125,0.019531,-0.015625,0.03125,0.0,-0.001953,0.001953
605525.0,1.621094,2.0625,9.414062,0.019531,0.023438,-0.007812,0.0,0.001953,0.0
605555.0,1.582031,2.0625,9.453125,0.019531,0.03125,0.03125,0.003906,-0.001953,0.0
605576.0,1.582031,2.023438,9.417969,-0.019531,0.023438,-0.015625,0.0,-0.001953,0.0
605590.0,1.582031,2.023438,9.457031,0.019531,0.023438,0.023438,0.0,0.001953,-0.001953
605606.0,1.582031,2.023438,9.417969,0.019531,-0.015625,-0.015625,0.001953,-0.001953,0.0
605629.0,1.621094,2.0625,9.453125,0.019531,0.023438,0.023438,0.0,-0.003906,0.001953
605645.0,1.582031,2.0625,9.414062,0.019531,-0.015625,0.0625,-0.001953,-0.003906,0.001953
605669.0,1.621094,2.023438,9.417969,0.019531,-0.015625,-0.015625,0.001953,-0.001953,0.001953
605686.0,1.582031,2.023438,9.417969,-0.019531,0.023438,-0.015625,0.0,0.001953,0.0
605700.0,1.582031,2.0625,9.453125,0.019531,-0.015625,-0.015625,-0.001953,0.0,0.003906
605715.0,1.582031,2.023438,9.457031,-0.019531,-0.015625,-0.015625,-0.001953,-0.001953,0.001953
605738.0,1.582031,2.0625,9.453125,-0.019531,0.023438,0.023438,-0.001953,0.001953,0.0
605783.0,1.621094,2.023438,9.417969,0.019531,-0.015625,-0.015625,-0.003906,0.0,0.0
605819.0,1.621094,2.0625,9.414062,0.019531,0.023438,-0.015625,0.001953,0.0,-0.001953
605836.0,1.582031,2.023438,9.417969,0.019531,0.023438,-0.015625,0.003906,-0.001953,0.0
605852.0,1.621094,2.023438,9.457031,0.019531,-0.015625,0.023438,0.001953,0.0,0.0
605875.0,1.621094,2.0625,9.453125,0.019531,0.023438,-0.015625,-0.001953,0.0,0.001953
605897.0,1.621094,2.023438,9.457031,-0.019531,0.023438,-0.015625,0.001953,0.001953,-0.001953
605916.0,1.621094,2.0625,9.414062,0.019531,0.023438,-0.015625,0.0,0.0,0.0
605935.0,1.582031,2.023438,9.457031,-0.019531,-0.015625,-0.015625,0.0,0.0,0.0
605960.0,1.621094,2.0625,9.453125,0.019531,0.023438,0.023438,0.0,0.0,0.0
605975.0,1.621094,2.023438,9.457031,0.019531,-0.015625,-0.015625,0.0,0.0,0.0
606000.0,1.582031,2.0625,9.453125,-0.019531,0.023438,0.023438,0.0,0.0,0.0
606015.0,1.582031,2.0625,9.453125,-0.019531,-0.015625,-0.015625,0.0,0.0,0.0
606039.0,1.621094,2.023438,9.457031,0.019531,-0.015625,0.023438,0.0,0.0,0.0
606055.0,1.582031,2.023438,9.417969,0.019531,-0.015625,-0.054688,0.0,0.0,0.0
606079.0,1.621094,2.0625,9.453125,0.019531,0.023438,0.023438,0.0,0.0,0.0
606095.0,1.582031,2.023438,9.417969,0.019531,0.023438,-0.015625,0.0,0.0,0.0
606118.0,1.621094,2.023438,9.417969,0.019531,-0.015625,-0.015625,0.0,0.0,0.0
606149.0,1.582031,2.0625,9.453125,-0.019531,0.023438,0.023438,0.0,0.0,0.0
606189.0,1.621094,2.023438,9.417969,0.019531,-0.015625,-0.015625,0.0,0.0,0.0
606205.0,1.621094,2.023438,9.417969,0.019531,-0.015625,0.023438,0.0,0.0,0.0
606228.0,1.621094,2.0625,9.414062,0.019531,0.023438,-0.015625,0.0,0.0,0.0
606245.0,1.621094,2.023438,9.457031,0.019531,-0.015625,-0.015625,0.0,0.0,0.0
606268.0,1.621094,2.0625,9.414062,0.019531,0.023438,-0.015625,0.0,0.0,0.0
606285.0,1.621094,2.0625,9.414062,0.019531,-0.015625,-0.015625,0.0,0.0,0.0
606299.0,1.582031,2.0625,9.453125,0.019531,-0.015625,0.023438,0.0,0.0,0.0
606315.0,1.621094,2.0625,9.414062,0.019531,-0.015625,0.023438,0.0,0.0,0.0
606339.0,1.621094,2.0625,9.453125,0.011719,0.023438,0.023438,0.0,0.0,0.0
606355.0,1.582031,2.0625,9.453125,0.011719,0.023438,-0.015625,0.0,0.0,0.0
606377.0,1.621094,2.0625,9.453125,0.011719,0.023438,0.023438,0.0,0.0,0.0
606418.0,1.621094,2.023438,9.457031,0.011719,-0.023438,0.023438,0.0,0.0,0.0
606435.0,1.621094,2.0625,9.453125,0.011719,0.015625,-0.015625,0.0,0.0,0.0
606449.0,1.621094,2.023438,9.417969,-0.027344,0.015625,-0.015625,0.0,0.0,0.0
606465.0,1.621094,2.023438,9.417969,-0.027344,-0.023438,0.023438,0.0,0.0,0.0
606488.0,1.582031,2.023438,9.417969,-0.027344,-0.023438,-0.015625,0.0,0.0,0.0
606504.0,1.582031,2.023438,9.457031,-0.027344,-0.023438,-0.015625,0.0,0.0,0.0
606527.0,1.621094,2.023438,9.417969,0.011719,-0.023438,-0.015625,0.0,0.0,0.0
606544.0,1.621094,2.0625,9.414062,0.011719,0.015625,-0.015625,0.0,0.0,0.0
606567.0,1.621094,2.0625,9.414062,0.011719,0.015625,-0.015625,0.0,0.0,0.0
606599.0,1.621094,2.023438,9.457031,0.019531,-0.023438,0.03125,0.0,0.0,0.0
606614.0,1.621094,2.023438,9.457031,0.019531,-0.023438,-0.007812,0.0,0.0,0.0
606638.0,1.621094,2.023438,9.417969,0.019531,-0.023438,-0.007812,0.0,0.0,0.0
606654.0,1.621094,2.0625,9.453125,-0.019531,0.015625,0.03125,0.0,0.0,0.0
606678.0,1.621094,2.0625,9.414062,0.019531,0.015625,-0.007812,0.0,0.0,0.0
606695.0,1.582031,2.0625,9.414062,0.019531,-0.023438,-0.007812,0.0,0.0,0.0
606709.0,1.582031,2.023438,9.457031,-0.019531,-0.023438,0.03125,0.0,0.0,0.0
606734.0,1.621094,2.0625,9.414062,0.019531,-0.023438,-0.007812,0.0,0.0,0.0
606755.0,1.582031,2.0625,9.453125,-0.019531,0.015625,0.03125,0.0,0.0,0.0
606787.0,1.621094,2.0625,9.453125,0.019531,0.015625,0.03125,0.0,0.0,0.0
606804.0,1.621094,2.023438,9.417969,-0.019531,-0.023438,0.03125,0.0,0.0,0.0
606827.0,1.582031,2.023438,9.417969,-0.019531,-0.023438,-0.007812,0.0,0.0,0.0
606844.0,1.621094,2.0625,9.414062,-0.019531,0.015625,-0.007812,0.0,0.0,0.0
606859.0,1.582031,2.023438,9.417969,-0.019531,0.015625,-0.007812,0.0,0.0,0.0
606874.0,1.621094,2.023438,9.417969,-0.019531,-0.023438,-0.007812,0.0,0.0,0.0
606897.0,1.621094,2.0625,9.453125,0.019531,0.015625,0.03125,0.0,0.0,0.0
606914.0,1.621094,2.0625,9.414062,0.019531,0.015625,0.03125,0.0,0.0,0.0
606938.0,1.582031,2.023438,9.457031,-0.019531,-0.023438,0.03125,0.0,0.0,0.0
606954.0,1.582031,2.0625,9.453125,0.019531,-0.023438,0.03125,0.0,0.0,0.0
606977.0,1.621094,2.023438,9.457031,0.019531,-0.023438,0.03125,0.0,0.0,0.0
606994.0,1.621094,2.023438,9.457031,0.019531,-0.023438,-0.015625,0.0,0.0,0.0
607009.0,1.582031,2.0625,9.453125,-0.019531,-0.023438,-0.015625,0.0,0.0,0.0
607023.0,1.621094,2.023438,9.417969,0.019531,-0.023438,-0.015625,0.0,0.0,0.0
607047.0,1.621094,2.023438,9.457031,0.019531,-0.015625,0.015625,0.0,0.0,0.0
607063.0,1.621094,2.023438,9.457031,0.019531,-0.015625,-0.023438,0.0,0.0,0.0
607087.0,1.621094,2.0625,9.414062,0.019531,0.023438,-0.023438,0.0,0.0,0.0
607127.0,1.582031,2.0625,9.414062,-0.027344,0.023438,-0.023438,0.0,0.0,0.0
607143.0,1.621094,2.0625,9.414062,0.011719,-0.015625,-0.023438,0.0,0.0,0.0
607166.0,1.621094,2.0625,9.414062,0.011719,0.023438,-0.015625,0.0,0.0,0.0
607198.0,1.621094,2.023438,9.417969,0.011719,-0.015625,-0.015625,0.0,0.0,0.0
607237.0,1.621094,2.0625,9.414062,0.011719,0.023438,-0.015625,0.0,0.0,0.0
607253.0,1.621094,2.023438,9.417969,0.011719,-0.015625,0.023438,0.0,0.0,0.0
607277.0,1.621094,2.0625,9.453125,0.011719,0.023438,0.023438,0.0,0.0,0.0
607294.0,1.621094,2.023438,9.417969,0.011719,-0.015625,0.023438,0.0,0.0,0.0
607316.0,1.621094,2.0625,9.414062,0.011719,0.023438,-0.015625,0.0,0.0,0.0
607333.0,1.621094,2.023438,9.417969,0.011719,-0.015625,0.023438,0.0,0.0,0.0
607347.0,1.621094,2.0625,9.414062,-0.027344,0.023438,-0.015625,0.0,0.0,0.0
607363.0,1.621094,2.023438,9.457031,0.011719,-0.015625,-0.015625,0.0,0.0,0.0
607386.0,1.582031,2.023438,9.417969,-0.027344,-0.015625,-0.015625,0.0,0.0,0.0
607402.0,1.621094,2.023438,9.417969,0.011719,-0.015625,-0.015625,0.0,0.0,0.0
607425.0,1.621094,2.0625,9.414062,0.011719,0.023438,-0.015625,0.0,0.0,0.0
607466.0,1.621094,2.023438,9.417969,0.011719,-0.015625,-0.015625,0.0,0.0,0.0
607483.0,1.621094,2.023438,9.417969,0.011719,-0.015625,0.023438,0.0,0.0,0.0
607502.0,1.621094,2.023438,9.417969,0.050781,-0.015625,0.023438,0.0,0.0,0.0
607522.0,1.621094,2.0625,9.453125,0.011719,0.023438,-0.007812,0.0,0.0,0.0
607542.0,1.621094,2.0625,9.453125,0.003906,-0.015625,0.03125,0.0,0.0,0.0
607562.0,1.582031,2.0625,9.414062,-0.035156,-0.015625,0.023438,0.0,0.0,0.0
607582.0,1.582031,2.0625,9.414062,0.003906,-0.015625,-0.015625,0.0,0.0,0.0
607615.0,1.582031,2.023438,9.457031,-0.027344,-0.015625,0.023438,0.0,0.0,0.0
607632.0,1.582031,2.0625,9.453125,-0.027344,0.023438,-0.015625,0.0,0.0,0.0
607647.0,1.621094,2.023438,9.417969,0.011719,-0.015625,-0.015625,0.0,0.0,0.0
607662.0,1.621094,2.023438,9.417969,0.011719,-0.015625,-0.015625,0.0,0.0,0.0
607702.0,1.621094,2.023438,9.417969,0.011719,0.023438,-0.015625,0.0,0.0,0.0
607726.0,1.621094,2.023438,9.457031,0.011719,-0.015625,0.023438,0.0,0.0,0.0
607742.0,1.621094,2.0625,9.453125,0.011719,0.023438,-0.015625,0.0,0.0,0.0
607773.0,1.621094,2.0625,9.453125,0.011719,-0.015625,-0.015625,0.0,0.0,0.0
607802.0,1.582031,2.023438,9.417969,0.011719,-0.015625,-0.015625,0.0,0.0,0.0
607822.0,1.621094,2.0625,9.453125,0.050781,-0.015625,0.023438,0.0,0.0,0.0
607842.0,1.621094,2.0625,9.414062,0.011719,-0.015625,-0.015625,0.0,0.0,0.0
607862.0,1.621094,2.023438,9.417969,0.011719,-0.015625,0.023438,0.0,0.0,0.0
607881.0,1.621094,2.023438,9.417969,-0.035156,0.023438,-0.015625,0.0,0.0,0.0
607905.0,1.660156,2.023438,9.417969,0.042969,-0.015625,-0.015625,0.0,0.0,0.0
607921.0,1.660156,2.0625,9.453125,0.003906,-0.015625,0.0625,0.0,0.0,0.0
607945.0,1.621094,2.023438,9.457031,0.003906,-0.015625,0.023438,0.0,0.0,0.0
607955.0,1.621094,2.023438,9.457031,0.003906,-0.015625,0.023438,0.0,0.0,0.0
607985.0,1.621094,2.023438,9.417969,0.003906,-0.015625,-0.015625,0.0,0.0,0.0
608001.0,1.621094,2.023438,9.417969,0.003906,-0.015625,-0.015625,0.0,0.0,0.0
608024.0,1.621094,2.0625,9.414062,0.003906,0.023438,-0.015625,0.0,0.0,0.0
608056.0,1.621094,2.0625,9.453125,0.003906,0.023438,0.023438,0.0,0.0,0.0
608072.0,1.621094,2.023438,9.457031,0.003906,0.023438,-0.015625,0.0,0.0,0.0
608094.0,1.621094,2.023438,9.457031,0.003906,-0.015625,0.023438,0.0,0.0,0.0
608152.0,1.621094,2.0625,9.453125,0.003906,0.023438,-0.015625,0.0,0.0,0.0
608174.0,1.621094,2.023438,9.417969,0.003906,-0.015625,-0.015625,0.0,0.0,0.0
608192.0,1.621094,2.0625,9.414062,0.003906,-0.015625,0.023438,0.0,0.0,0.0
608211.0,1.582031,2.0625,9.453125,0.003906,0.023438,-0.015625,0.0,0.0,0.0
608232.0,1.621094,2.023438,9.417969,0.003906,0.023438,-0.015625,0.0,0.0,0.0
608246.0,1.621094,2.023438,9.417969,-0.035156,0.023438,0.023438,-0.001953,0.0,-0.001953
608261.0,1.621094,2.023438,9.417969,0.003906,-0.015625,-0.015625,0.001953,0.001953,0.0
608285.0,1.621094,2.0625,9.453125,0.003906,0.015625,0.023438,0.001953,-0.001953,0.001953
608301.0,1.621094,2.023438,9.457031,0.003906,-0.023438,0.023438,-0.001953,0.001953,0.001953
608325.0,1.621094,2.023438,9.457031,0.003906,-0.023438,0.015625,-0.001953,-0.001953,0.001953
608355.0,1.582031,2.023438,9.457031,-0.035156,-0.023438,0.015625,-0.003906,-0.003906,0.0
608371.0,1.621094,2.0625,9.453125,0.011719,-0.015625,-0.023438,-0.001953,-0.003906,0.001953
608395.0,1.621094,2.0625,9.414062,0.011719,0.023438,-0.023438,0.0,-0.001953,0.0
608411.0,1.621094,2.023438,9.457031,0.011719,0.023438,0.015625,0.001953,0.0,0.001953
608434.0,1.621094,2.0625,9.414062,0.011719,0.023438,-0.023438,0.001953,0.0,0.001953
608451.0,1.621094,2.0625,9.453125,0.011719,-0.015625,-0.023438,0.003906,0.0,0.001953
608474.0,1.621094,2.023438,9.457031,0.011719,-0.015625,0.015625,-0.001953,0.001953,0.0
608491.0,1.621094,2.023438,9.417969,-0.027344,-0.015625,-0.023438,0.003906,0.0,0.0
608506.0,1.660156,2.0625,9.453125,0.011719,-0.015625,-0.023438,0.001953,0.001953,0.001953
608520.0,1.621094,2.0625,9.453125,0.011719,0.023438,0.023438,0.001953,0.005859,0.001953
608544.0,1.621094,2.023438,9.417969,0.011719,-0.015625,-0.015625,0.003906,0.003906,0.003906
608560.0,1.621094,2.0625,9.453125,0.011719,-0.015625,0.023438,0.001953,0.005859,0.0
608583.0,1.621094,2.0625,9.453125,0.011719,0.023438,0.015625,0.0,0.005859,-0.001953
608600.0,1.621094,2.0625,9.414062,-0.019531,0.023438,0.015625,-0.003906,0.005859,-0.005859
608623.0,1.621094,2.0625,9.414062,0.019531,0.023438,-0.023438,-0.003906,0.005859,-0.001953
608641.0,1.621094,2.023438,9.457031,-0.019531,-0.015625,0.015625,-0.001953,0.003906,0.0
608661.0,1.621094,2.023438,9.417969,-0.019531,-0.015625,0.015625,0.0,0.005859,-0.003906
608680.0,1.621094,2.023438,9.457031,0.019531,-0.015625,-0.023438,0.003906,0.005859,-0.001953
608700.0,1.582031,2.023438,9.417969,-0.019531,0.023438,-0.023438,-0.001953,0.003906,0.0
608721.0,1.621094,2.023438,9.457031,-0.019531,0.023438,0.015625,-0.003906,0.003906,-0.003906
608741.0,1.582031,2.023438,9.417969,0.027344,-0.015625,0.015625,0.001953,0.003906,0.0
608774.0,1.582031,2.023438,9.457031,-0.011719,-0.015625,0.015625,0.001953,0.003906,0.0
608791.0,1.621094,2.0625,9.414062,-0.011719,0.023438,-0.023438,0.0,0.001953,-0.003906
608805.0,1.621094,2.023438,9.457031,0.027344,0.023438,-0.023438,0.003906,0.003906,-0.001953
608820.0,1.582031,2.023438,9.417969,-0.011719,0.023438,-0.023438,-0.001953,0.001953,0.003906
608845.0,1.582031,2.0625,9.414062,-0.011719,0.023438,-0.015625,0.003906,0.001953,0.001953
608860.0,1.582031,2.023438,9.417969,-0.011719,0.023438,0.023438,-0.001953,-0.001953,0.001953
608884.0,1.582031,2.023438,9.417969,-0.011719,-0.015625,-0.015625,0.001953,-0.001953,-0.001953
608900.0,1.621094,2.0625,9.453125,0.027344,0.023438,-0.015625,0.003906,-0.001953,0.001953
608924.0,1.582031,2.0625,9.453125,-0.011719,0.023438,0.023438,0.001953,-0.001953,0.0
608941.0,1.621094,2.023438,9.417969,0.027344,-0.015625,0.023438,-0.001953,-0.003906,0.0
608961.0,1.582031,2.0625,9.414062,0.019531,-0.015625,0.023438,-0.005859,-0.005859,0.0
608980.0,1.621094,2.0625,9.414062,0.019531,0.023438,-0.015625,-0.003906,-0.001953,0.001953
608994.0,1.621094,2.023438,9.457031,0.058594,0.03125,0.023438,-0.003906,-0.003906,0.0
609034.0,1.621094,2.023438,9.457031,0.019531,-0.015625,0.023438,0.0,-0.003906,0.001953
609050.0,1.621094,2.023438,9.457031,0.019531,0.023438,-0.015625,0.001953,-0.003906,0.0
609073.0,1.621094,2.023438,9.417969,0.011719,-0.023438,-0.015625,0.001953,-0.001953,0.001953
609090.0,1.582031,2.023438,9.417969,0.011719,-0.023438,-0.015625,0.001953,-0.001953,0.0
609105.0,1.621094,2.0625,9.414062,0.011719,0.015625,-0.015625,0.0,0.0,0.0
609119.0,1.621094,2.0625,9.414062,-0.027344,-0.023438,-0.015625,-0.003906,0.003906,-0.001953
609144.0,1.621094,2.023438,9.457031,0.011719,-0.023438,0.023438,0.001953,0.001953,0.001953
609170.0,1.582031,2.023438,9.457031,0.011719,0.023438,-0.015625,0.001953,0.005859,0.001953
609183.0,1.582031,2.023438,9.378906,-0.027344,0.015625,-0.015625,-0.001953,0.001953,0.0
609200.0,1.582031,2.0625,9.414062,-0.027344,-0.023438,0.023438,-0.001953,0.001953,0.0
609222.0,1.621094,2.0625,9.414062,0.011719,0.015625,-0.015625,0.003906,0.003906,0.0
609253.0,1.621094,2.0625,9.453125,0.019531,0.015625,0.023438,0.0,0.003906,0.001953
609270.0,1.582031,2.0625,9.453125,0.019531,0.015625,0.023438,0.0,0.0,0.001953
609294.0,1.582031,2.0625,9.453125,-0.019531,0.015625,0.023438,0.001953,-0.001953,0.0
609309.0,1.582031,2.023438,9.457031,-0.019531,-0.023438,0.023438,-0.001953,0.001953,0.0
609333.0,1.582031,2.023438,9.417969,-0.019531,-0.023438,-0.015625,-0.001953,0.0,-0.001953
609349.0,1.621094,2.023438,9.457031,0.019531,-0.023438,0.023438,0.001953,0.001953,0.0
609372.0,1.582031,2.0625,9.414062,-0.011719,0.015625,-0.015625,0.0,0.003906,0.0
609403.0,1.582031,2.023438,9.457031,-0.011719,-0.023438,0.023438,-0.001953,0.001953,0.0
609420.0,1.582031,2.023438,9.457031,-0.011719,0.015625,0.023438,-0.001953,0.001953,-0.001953
609442.0,1.582031,2.0625,9.453125,-0.011719,0.015625,0.015625,0.001953,0.0,0.0
609453.0,1.621094,2.0625,9.414062,0.027344,0.015625,-0.023438,0.001953,0.001953,0.001953
609483.0,1.582031,2.023438,9.417969,-0.011719,-0.023438,-0.023438,0.0,0.001953,0.001953
609499.0,1.621094,2.023438,9.457031,0.027344,-0.023438,0.015625,-0.001953,0.0,0.0
609523.0,1.621094,2.023438,9.417969,0.027344,-0.023438,-0.023438,-0.001953,0.001953,0.0
609539.0,1.582031,2.0625,9.414062,-0.011719,0.015625,0.015625,0.005859,0.001953,0.0
609554.0,1.582031,2.0625,9.414062,-0.011719,-0.023438,-0.023438,-0.001953,0.001953,0.0
609591.0,1.582031,2.0625,9.453125,-0.011719,0.023438,0.015625,0.0,0.003906,0.003906
609632.0,1.621094,2.0625,9.453125,0.027344,0.023438,0.015625,-0.003906,-0.001953,0.0
609649.0,1.621094,2.0625,9.453125,-0.011719,0.023438,0.015625,-0.003906,0.0,-0.001953
609672.0,1.582031,2.0625,9.414062,-0.011719,0.023438,-0.023438,0.0,0.001953,0.0
609690.0,1.582031,2.023438,9.417969,-0.011719,0.023438,-0.023438,0.003906,0.003906,0.001953
609704.0,1.582031,2.0625,9.414062,0.027344,-0.023438,-0.023438,0.0,0.001953,-0.001953
609720.0,1.582031,2.0625,9.453125,0.027344,-0.023438,-0.023438,0.0,0.001953,0.0
609741.0,1.621094,2.0625,9.453125,0.027344,0.015625,0.015625,0.0,0.001953,0.0
609790.0,1.621094,2.023438,9.457031,0.027344,-0.023438,0.015625,0.001953,0.005859,-0.001953
609814.0,1.660156,2.0625,9.453125,0.074219,0.015625,0.015625,-0.003906,0.005859,0.0
609839.0,1.582031,2.023438,9.457031,-0.011719,0.023438,0.015625,-0.003906,0.001953,-0.001953
609859.0,1.582031,2.0625,9.453125,-0.003906,0.023438,0.007812,0.0,0.005859,-0.001953
609878.0,1.582031,2.023438,9.417969,-0.003906,0.023438,0.007812,-0.001953,0.0,0.001953
609899.0,1.582031,2.0625,9.414062,-0.003906,-0.015625,0.007812,-0.001953,0.003906,-0.001953
609919.0,1.582031,2.023438,9.457031,0.035156,-0.015625,0.007812,-0.001953,0.0,-0.001953
609938.0,1.582031,2.023438,9.417969,-0.003906,0.023438,-0.03125,0.001953,0.0,0.001953
609950.0,1.621094,2.023438,9.417969,-0.003906,-0.015625,-0.03125,-0.001953,0.0,0.001953
609978.0,1.582031,2.0625,9.492188,-0.003906,0.023438,0.007812,0.0,-0.001953,-0.001953
610002.0,1.582031,2.0625,9.414062,-0.003906,0.023438,-0.03125,-0.001953,-0.001953,-0.001953
610018.0,1.582031,2.0625,9.453125,-0.003906,-0.015625,0.015625,-0.001953,0.0,0.001953
610043.0,1.621094,2.023438,9.457031,0.035156,-0.015625,0.007812,-0.001953,-0.003906,-0.001953
610058.0,1.582031,2.023438,9.417969,-0.003906,0.023438,0.015625,0.0,0.0,0.001953
610082.0,1.582031,2.0625,9.414062,-0.011719,0.023438,-0.023438,0.0,-0.003906,0.0
610098.0,1.582031,2.023438,9.417969,-0.011719,-0.015625,-0.023438,0.001953,-0.001953,0.0
610113.0,1.621094,2.023438,9.457031,-0.011719,-0.015625,0.015625,0.001953,0.001953,0.001953
610128.0,1.582031,2.0625,9.453125,0.027344,0.023438,0.015625,0.0,-0.001953,0.0
610151.0,1.582031,2.023438,9.457031,-0.011719,-0.015625,0.015625,0.001953,-0.001953,0.0
610168.0,1.621094,2.0625,9.453125,0.027344,-0.015625,0.015625,0.001953,-0.001953,0.001953
610192.0,1.582031,2.0625,9.453125,-0.011719,0.023438,0.015625,0.0,-0.003906,0.0
610208.0,1.582031,2.023438,9.457031,0.027344,0.023438,0.015625,-0.001953,-0.001953,0.0
610231.0,1.582031,2.0625,9.453125,-0.011719,0.023438,0.015625,-0.003906,0.0,-0.001953
610248.0,1.621094,2.023438,9.417969,0.027344,0.023438,0.015625,-0.001953,0.001953,0.001953
610271.0,1.621094,2.023438,9.457031,0.027344,-0.015625,0.015625,-0.001953,-0.001953,0.001953
610288.0,1.582031,2.023438,9.457031,-0.011719,0.023438,0.015625,-0.001953,-0.003906,0.001953
610302.0,1.582031,2.0625,9.453125,-0.011719,-0.015625,-0.023438,0.003906,-0.001953,-0.001953
610317.0,1.582031,2.0625,9.414062,-0.011719,-0.015625,0.015625,0.001953,-0.003906,-0.001953
610341.0,1.582031,2.023438,9.417969,-0.011719,-0.015625,-0.023438,0.003906,0.0,0.0
610358.0,1.582031,2.0625,9.414062,0.027344,-0.015625,-0.023438,-0.001953,0.0,0.0
610381.0,1.621094,2.023438,9.417969,0.027344,-0.015625,-0.023438,0.001953,-0.001953,0.001953
610398.0,1.582031,2.0625,9.453125,-0.011719,0.023438,0.015625,0.001953,0.001953,-0.001953
610412.0,1.582031,2.0625,9.453125,-0.011719,-0.015625,0.015625,0.0,-0.001953,0.0
610427.0,1.582031,2.023438,9.457031,-0.011719,-0.015625,-0.023438,0.001953,0.001953,0.0
610451.0,1.621094,2.023438,9.457031,0.027344,-0.015625,0.015625,0.001953,-0.001953,0.001953
610467.0,1.621094,2.0625,9.453125,0.027344,-0.015625,0.015625,0.0,0.0,0.001953
610490.0,1.621094,2.023438,9.417969,0.027344,-0.015625,-0.023438,0.001953,-0.001953,0.001953
610501.0,1.582031,2.0625,9.453125,-0.011719,0.023438,0.015625,-0.001953,-0.001953,0.0
610531.0,1.621094,2.0625,9.453125,0.027344,0.023438,0.015625,0.0,-0.001953,-0.001953
610547.0,1.582031,2.0625,9.453125,-0.011719,-0.015625,-0.023438,0.0,-0.001953,0.0
610570.0,1.582031,2.023438,9.457031,-0.011719,-0.015625,0.015625,-0.001953,-0.003906,0.0
610588.0,1.621094,2.0625,9.453125,0.027344,-0.015625,0.015625,0.001953,-0.003906,-0.001953
610602.0,1.582031,2.023438,9.417969,0.027344,0.023438,0.015625,0.003906,0.001953,0.0
610618.0,1.621094,2.0625,9.414062,0.027344,0.023438,0.015625,0.003906,0.001953,0.0
610641.0,1.621094,2.023438,9.457031,0.027344,-0.015625,0.015625,0.0,-0.003906,0.001953
610657.0,1.621094,2.0625,9.453125,0.027344,0.023438,0.015625,0.001953,-0.001953,0.0
610680.0,1.582031,2.0625,9.453125,-0.011719,0.023438,0.015625,-0.001953,-0.001953,0.0
610697.0,1.621094,2.023438,9.417969,-0.011719,0.023438,-0.023438,-0.001953,-0.001953,-0.005859
610720.0,1.621094,2.023438,9.417969,0.027344,-0.015625,-0.023438,0.003906,0.0,0.0
610738.0,1.582031,2.0625,9.414062,-0.011719,0.015625,-0.023438,-0.003906,-0.001953,-0.001953
610752.0,1.582031,2.023438,9.417969,0.027344,0.015625,0.015625,-0.001953,-0.001953,0.0
610791.0,1.621094,2.0625,9.453125,0.027344,0.015625,0.015625,0.001953,0.0,0.0
610807.0,1.582031,2.023438,9.457031,0.027344,-0.023438,0.015625,0.001953,0.0,-0.001953
610831.0,1.621094,2.0625,9.414062,0.027344,0.015625,-0.023438,0.001953,-0.001953,-0.001953
610847.0,1.582031,2.0625,9.414062,-0.011719,0.015625,-0.023438,0.0,0.0,0.0
610870.0,1.582031,2.0625,9.453125,-0.019531,0.015625,0.015625,-0.001953,0.0,0.0
610889.0,1.582031,2.101562,9.453125,-0.019531,0.015625,-0.023438,-0.005859,0.0,0.0
610907.0,1.621094,2.023438,9.457031,-0.019531,-0.023438,0.015625,-0.001953,0.001953,0.0
610928.0,1.582031,2.023438,9.457031,0.019531,0.015625,-0.0625,0.001953,0.001953,0.0
610947.0,1.582031,2.023438,9.457031,0.027344,-0.023438,-0.023438,-0.003906,0.001953,-0.001953
610981.0,1.621094,2.023438,9.417969,0.027344,-0.023438,-0.023438,0.0,0.001953,-0.003906
610996.0,1.582031,2.0625,9.414062,-0.011719,0.015625,0.015625,0.003906,0.001953,0.0
611020.0,1.582031,2.023438,9.457031,-0.011719,-0.023438,0.015625,0.0,0.001953,0.001953
611037.0,1.582031,2.023438,9.457031,-0.011719,-0.023438,0.015625,0.0,0.001953,0.0
611051.0,1.582031,2.0625,9.414062,0.027344,0.015625,0.015625,0.003906,0.003906,0.001953
611067.0,1.621094,2.0625,9.414062,-0.011719,0.015625,-0.023438,0.0,0.003906,-0.001953
611091.0,1.582031,2.0625,9.453125,-0.003906,0.015625,0.015625,0.001953,0.001953,0.001953
611106.0,1.582031,2.0625,9.414062,-0.003906,0.015625,-0.023438,0.001953,0.003906,-0.001953
611130.0,1.582031,2.0625,9.453125,-0.003906,0.015625,0.015625,0.001953,0.001953,0.001953
611147.0,1.582031,2.0625,9.453125,0.035156,-0.023438,-0.023438,-0.003906,0.0,0.0
611169.0,1.582031,2.0625,9.453125,-0.003906,0.015625,0.015625,-0.001953,-0.001953,-0.001953
611199.0,1.621094,2.023438,9.417969,0.035156,-0.023438,-0.023438,0.0,0.001953,0.0
611216.0,1.582031,2.0625,9.414062,0.035156,0.015625,0.015625,-0.001953,0.0,0.001953
611240.0,1.621094,2.0625,9.453125,0.027344,0.015625,0.015625,0.001953,-0.001953,-0.001953
611256.0,1.582031,2.0625,9.414062,-0.011719,0.015625,0.015625,0.001953,0.001953,0.0
611280.0,1.582031,2.023438,9.417969,-0.011719,-0.023438,-0.023438,0.001953,0.003906,0.0
611297.0,1.582031,2.0625,9.414062,-0.011719,-0.023438,0.015625,-0.003906,0.001953,-0.001953
611316.0,1.582031,2.0625,9.453125,-0.011719,-0.023438,-0.015625,-0.001953,0.003906,0.001953
611336.0,1.582031,2.0625,9.414062,-0.003906,0.015625,0.015625,-0.001953,-0.001953,0.0
611351.0,1.582031,2.023438,9.457031,-0.003906,0.015625,0.015625,0.0,0.001953,0.0
611366.0,1.582031,2.0625,9.453125,-0.003906,0.015625,-0.023438,0.001953,0.003906,0.001953
611390.0,1.582031,2.023438,9.457031,0.003906,-0.03125,0.023438,-0.001953,-0.001953,-0.001953
611406.0,1.582031,2.0625,9.453125,0.003906,-0.03125,0.023438,0.0,0.001953,0.0
611429.0,1.621094,2.023438,9.457031,0.035156,-0.023438,0.015625,-0.001953,-0.001953,0.001953
611446.0,1.621094,2.0625,9.414062,0.035156,-0.023438,-0.023438,0.001953,0.0,-0.001953
611469.0,1.582031,2.0625,9.453125,-0.003906,0.015625,0.015625,-0.001953,0.0,-0.001953
611499.0,1.582031,2.0625,9.414062,-0.003906,0.015625,-0.023438,-0.001953,0.0,0.001953
611516.0,1.621094,2.023438,9.457031,-0.003906,-0.023438,-0.023438,-0.005859,0.001953,0.001953
611538.0,1.621094,2.0625,9.453125,0.027344,0.015625,0.015625,-0.005859,-0.001953,0.001953
611579.0,1.582031,2.023438,9.417969,-0.011719,-0.023438,-0.023438,0.0,0.001953,-0.001953
611596.0,1.621094,2.023438,9.417969,-0.011719,0.015625,0.015625,-0.001953,-0.001953,-0.001953
611611.0,1.582031,2.023438,9.417969,-0.003906,0.015625,0.015625,0.0,0.001953,-0.001953
611665.0,1.621094,2.023438,9.457031,-0.003906,-0.023438,-0.023438,0.0,0.001953,0.0
611689.0,1.582031,2.023438,9.417969,-0.003906,-0.015625,-0.015625,0.001953,0.001953,-0.001953
611705.0,1.582031,2.0625,9.453125,-0.003906,0.023438,-0.015625,0.003906,0.003906,0.001953
611728.0,1.582031,2.0625,9.453125,-0.003906,0.015625,0.023438,0.003906,0.001953,-0.001953
611745.0,1.582031,2.023438,9.457031,-0.003906,-0.023438,0.023438,0.001953,0.0,0.0
611805.0,1.582031,2.0625,9.414062,-0.003906,-0.023438,-0.015625,-0.001953,0.001953,0.001953
611825.0,1.582031,2.0625,9.453125,-0.003906,0.015625,-0.015625,0.003906,0.001953,-0.001953
611845.0,1.582031,2.0625,9.414062,-0.042969,0.015625,0.023438,0.0,0.001953,0.0
611866.0,1.621094,2.0625,9.453125,-0.003906,0.015625,-0.015625,-0.001953,0.0,0.0
611885.0,1.582031,2.0625,9.453125,-0.003906,0.015625,-0.015625,0.001953,0.001953,0.0
611907.0,1.621094,2.0625,9.453125,-0.003906,0.015625,0.023438,0.0,-0.001953,0.0
611921.0,1.621094,2.0625,9.453125,0.035156,0.015625,0.023438,0.0,-0.001953,0.001953
611965.0,1.582031,2.023438,9.417969,-0.003906,0.015625,-0.023438,0.001953,0.001953,0.0
611989.0,1.582031,2.0625,9.453125,-0.003906,0.015625,0.015625,0.001953,0.0,0.001953
612006.0,1.621094,2.0625,9.453125,-0.003906,0.015625,0.015625,-0.001953,-0.001953,-0.001953
612028.0,1.582031,2.0625,9.453125,-0.003906,0.015625,0.015625,0.003906,-0.001953,0.001953
612045.0,1.582031,2.0625,9.453125,-0.003906,0.015625,0.015625,-0.001953,0.001953,0.001953
612068.0,1.621094,2.0625,9.414062,0.035156,0.015625,-0.023438,0.0,0.0,0.001953
612085.0,1.621094,2.0625,9.414062,-0.003906,0.015625,-0.023438,-0.001953,0.001953,0.0
612100.0,1.582031,2.0625,9.453125,-0.003906,0.015625,-0.023438,0.001953,0.001953,0.001953
612115.0,1.582031,2.0625,9.414062,-0.003906,0.015625,0.015625,0.001953,-0.001953,0.0
612138.0,1.582031,2.0625,9.414062,-0.003906,0.015625,-0.023438,-0.001953,-0.001953,0.0
612154.0,1.582031,2.0625,9.414062,-0.003906,-0.023438,0.015625,0.0,-0.001953,-0.001953
612178.0,1.582031,2.0625,9.453125,-0.003906,0.015625,0.015625,-0.003906,-0.001953,0.0
612195.0,1.582031,2.023438,9.417969,-0.003906,-0.023438,0.015625,-0.005859,-0.001953,0.0
612218.0,1.582031,2.023438,9.417969,-0.003906,-0.023438,-0.023438,-0.003906,0.0,0.0
612249.0,1.582031,2.023438,9.457031,-0.003906,-0.023438,0.015625,-0.003906,-0.001953,0.0
612264.0,1.582031,2.023438,9.417969,-0.003906,0.015625,0.015625,0.001953,0.001953,0.001953
612288.0,1.582031,2.023438,9.417969,0.003906,-0.023438,-0.023438,0.001953,0.0,0.001953
612305.0,1.582031,2.101562,9.414062,0.042969,0.015625,0.015625,0.003906,0.0,0.0
612327.0,1.582031,2.0625,9.453125,0.003906,0.015625,0.015625,0.0,0.0,0.003906
612345.0,1.582031,2.0625,9.453125,0.042969,-0.023438,-0.023438,-0.001953,0.001953,-0.001953
612359.0,1.582031,2.0625,9.414062,0.003906,-0.023438,-0.023438,0.003906,0.001953,-0.001953
612374.0,1.582031,2.0625,9.414062,0.003906,-0.023438,-0.023438,0.001953,0.001953,0.003906
612397.0,1.582031,2.0625,9.414062,0.003906,0.015625,-0.023438,0.001953,0.003906,0.001953
612414.0,1.582031,2.023438,9.417969,0.003906,0.015625,-0.023438,0.003906,0.001953,0.0
612438.0,1.582031,2.023438,9.457031,0.003906,-0.023438,0.015625,-0.001953,0.003906,0.001953
612454.0,1.582031,2.0625,9.414062,0.003906,-0.023438,0.054688,0.001953,0.0,0.0
612478.0,1.582031,2.0625,9.414062,0.003906,0.015625,-0.023438,-0.001953,0.001953,0.0
612494.0,1.582031,2.0625,9.414062,0.042969,0.015625,0.015625,0.001953,0.001953,0.0
612517.0,1.582031,2.0625,9.453125,0.003906,0.015625,0.015625,0.001953,0.0,0.001953
612548.0,1.582031,2.0625,9.453125,0.003906,0.015625,0.015625,-0.001953,-0.001953,0.0
612564.0,1.582031,2.023438,9.457031,0.003906,-0.023438,0.015625,-0.001953,0.0,0.0
612588.0,1.582031,2.023438,9.417969,0.003906,-0.023438,-0.023438,-0.003906,0.001953,0.001953
612604.0,1.582031,2.023438,9.457031,0.003906,-0.023438,0.015625,0.001953,0.001953,0.001953
612626.0,1.621094,2.023438,9.457031,0.042969,-0.023438,0.015625,-0.003906,-0.001953,0.0
612667.0,1.582031,2.0625,9.453125,0.003906,0.023438,0.015625,0.001953,0.0,0.001953
612684.0,1.542969,2.023438,9.417969,0.003906,0.023438,-0.023438,-0.001953,0.001953,0.001953
612698.0,1.582031,2.023438,9.457031,0.003906,0.023438,0.015625,0.003906,-0.001953,0.0
612714.0,1.582031,2.023438,9.417969,0.003906,-0.015625,0.015625,-0.001953,-0.001953,0.001953
612736.0,1.582031,2.0625,9.414062,0.003906,0.023438,-0.023438,-0.001953,0.0,0.0
612776.0,1.582031,2.023438,9.457031,0.003906,-0.015625,0.015625,-0.001953,-0.001953,0.001953
612808.0,1.582031,2.023438,9.457031,0.003906,-0.015625,0.015625,-0.003906,-0.001953,0.0
612823.0,1.582031,2.0625,9.453125,0.003906,0.023438,-0.03125,-0.001953,0.0,0.0
612848.0,1.582031,2.023438,9.417969,0.003906,-0.015625,-0.023438,0.0,-0.003906,-0.001953
612885.0,1.582031,2.023438,9.457031,0.003906,-0.015625,0.015625,0.003906,-0.001953,0.0
612927.0,1.582031,2.023438,9.417969,0.003906,-0.015625,-0.023438,-0.001953,-0.001953,0.0
612943.0,1.582031,2.0625,9.453125,0.003906,0.023438,-0.023438,0.003906,0.001953,0.001953
612966.0,1.582031,2.023438,9.457031,0.003906,-0.015625,0.015625,-0.001953,-0.001953,0.0
612983.0,1.582031,2.023438,9.457031,0.003906,0.023438,0.015625,0.001953,0.001953,0.003906
613003.0,1.582031,2.0625,9.453125,0.003906,0.015625,-0.023438,0.003906,0.0,0.0
613023.0,1.582031,2.023438,9.417969,0.003906,0.015625,0.015625,0.003906,0.0,0.001953
613043.0,1.582031,2.0625,9.453125,0.003906,0.015625,-0.023438,-0.001953,0.0,0.0
613068.0,1.582031,2.0625,9.453125,0.003906,0.015625,0.015625,-0.003906,-0.003906,0.001953
613083.0,1.582031,2.023438,9.417969,-0.003906,-0.023438,-0.0625,0.001953,-0.003906,0.0
613116.0,1.582031,2.0625,9.453125,-0.003906,0.015625,0.015625,0.003906,-0.001953,0.001953
613147.0,1.621094,2.0625,9.453125,0.035156,0.015625,0.015625,0.0,0.0,-0.001953
613163.0,1.582031,2.023438,9.417969,0.035156,0.015625,-0.023438,0.001953,-0.001953,0.0
613186.0,1.621094,2.023438,9.457031,0.035156,-0.023438,0.015625,0.001953,-0.001953,0.001953
613203.0,1.621094,2.023438,9.457031,0.035156,-0.023438,0.015625,0.001953,-0.001953,0.0
613226.0,1.582031,2.0625,9.414062,-0.003906,0.015625,-0.023438,-0.001953,-0.001953,0.0
613243.0,1.582031,2.0625,9.453125,-0.011719,-0.023438,0.015625,-0.001953,-0.001953,0.001953
613265.0,1.621094,2.0625,9.414062,0.027344,0.015625,-0.023438,0.003906,-0.003906,0.0
613283.0,1.582031,2.0625,9.414062,-0.011719,-0.023438,0.015625,0.0,0.001953,0.0
613297.0,1.621094,2.0625,9.414062,-0.011719,0.015625,-0.015625,0.001953,0.0,0.003906
613312.0,1.582031,2.0625,9.414062,-0.011719,-0.023438,0.023438,0.0,-0.001953,0.003906
613336.0,1.582031,2.023438,9.457031,-0.011719,-0.023438,0.023438,0.0,0.001953,0.0
613352.0,1.582031,2.0625,9.414062,0.027344,0.015625,-0.015625,0.003906,0.001953,0.0
613376.0,1.582031,2.0625,9.414062,-0.011719,0.015625,-0.015625,0.001953,0.0,-0.001953
613393.0,1.621094,2.0625,9.453125,-0.003906,-0.023438,-0.015625,0.001953,0.001953,0.001953
613416.0,1.582031,2.0625,9.453125,-0.003906,0.015625,0.023438,0.0,0.001953,0.001953
613433.0,1.582031,2.0625,9.453125,0.035156,0.015625,-0.015625,-0.001953,0.003906,0.0
613447.0,1.582031,2.0625,9.414062,-0.003906,0.015625,0.023438,-0.003906,0.005859,0.0
613463.0,1.582031,2.023438,9.417969,0.003906,-0.023438,0.023438,-0.001953,0.003906,-0.001953
613484.0,1.621094,2.023438,9.457031,0.042969,-0.015625,0.023438,-0.001953,0.003906,0.0
613526.0,1.542969,2.023438,9.457031,-0.035156,-0.023438,0.023438,0.003906,-0.001953,-0.005859
613542.0,1.582031,2.023438,9.457031,0.003906,0.015625,-0.015625,0.0,-0.001953,0.001953
613565.0,1.582031,2.023438,9.417969,0.003906,-0.023438,-0.015625,-0.001953,-0.003906,0.0
613582.0,1.582031,2.101562,9.375,0.003906,-0.023438,0.023438,0.001953,-0.007812,0.003906
613597.0,1.542969,2.023438,9.457031,0.035156,-0.023438,0.023438,0.005859,-0.007812,0.003906
613636.0,1.621094,2.023438,9.417969,0.035156,-0.023438,-0.015625,0.005859,-0.007812,-0.001953
613655.0,1.621094,2.023438,9.417969,-0.003906,0.015625,-0.015625,0.001953,-0.005859,0.0
613675.0,1.621094,2.023438,9.457031,0.035156,-0.023438,0.03125,0.005859,-0.005859,-0.001953
613692.0,1.582031,2.023438,9.457031,-0.011719,-0.023438,0.023438,0.013672,-0.011719,-0.001953
613715.0,1.582031,2.0625,9.414062,-0.011719,0.015625,-0.015625,0.009766,-0.015625,-0.001953
613746.0,1.542969,2.101562,9.453125,-0.058594,0.054688,0.023438,0.005859,-0.03125,0.001953
613772.0,1.46875,2.0625,9.453125,0.011719,0.015625,-0.015625,-0.003906,-0.048828,0.011719
613802.0,1.429688,1.984375,9.5625,0.003906,0.046875,-0.09375,-0.013672,-0.064453,0.015625
613825.0,1.542969,1.945312,9.375,-0.082031,-0.109375,-0.046875,-0.015625,-0.027344,0.025391
613842.0,1.695312,2.0625,9.375,-0.128906,0.089844,0.070312,-0.025391,-0.074219,0.029297
613865.0,1.773438,2.0625,9.339844,0.117188,0.015625,-0.085938,-0.011719,-0.074219,0.019531
613882.0,1.734375,2.101562,9.523438,0.117188,-0.054688,-0.085938,-0.013672,-0.064453,0.013672
613896.0,1.773438,2.023438,9.335938,-0.050781,0.023438,0.070312,-0.009766,-0.052734,0.011719
613934.0,1.734375,2.023438,9.375,0.046875,-0.007812,-0.039062,-0.015625,-0.039062,0.009766
613951.0,1.773438,2.0625,9.496094,0.117188,-0.085938,-0.078125,-0.001953,-0.019531,0.001953
613975.0,1.734375,2.023438,9.414062,0.039062,0.0,0.007812,-0.005859,-0.001953,0.001953
613992.0,1.734375,2.023438,9.414062,0.03125,-0.007812,-0.03125,-0.001953,0.003906,-0.001953
614006.0,1.695312,2.023438,9.417969,-0.007812,0.0,0.007812,0.0,0.005859,-0.003906
614031.0,1.695312,2.023438,9.457031,0.03125,0.0,0.007812,0.003906,0.005859,-0.001953
614051.0,1.695312,2.023438,9.417969,0.023438,-0.039062,0.007812,0.009766,0.005859,0.0
614071.0,1.660156,2.023438,9.457031,-0.015625,0.03125,0.007812,0.003906,-0.001953,-0.001953
614091.0,1.734375,2.0625,9.457031,-0.050781,0.039062,0.046875,0.001953,-0.003906,-0.001953
614111.0,1.734375,2.023438,9.414062,0.023438,0.039062,0.046875,0.007812,-0.003906,-0.001953
614131.0,1.660156,2.023438,9.417969,-0.050781,-0.039062,0.046875,0.021484,-0.019531,-0.005859
614164.0,1.734375,2.023438,9.492188,0.015625,-0.015625,0.078125,0.033203,-0.048828,-0.005859
614181.0,1.695312,2.023438,9.417969,-0.03125,-0.015625,0.046875,0.048828,-0.066406,-0.007812
614196.0,1.695312,2.0625,9.527344,-0.046875,0.089844,0.121094,0.056641,-0.101562,0.0
614234.0,0.816406,2.0625,10.40625,-1.011719,-0.007812,1.019531,0.044922,-0.341797,-0.013672
614251.0,0.355469,2.253906,9.90625,-0.953125,-1.011719,-0.085938,-0.015625,-0.78125,-0.648438
614274.0,1.121094,1.527344,9.945312,-0.988281,-0.542969,0.613281,-0.371094,-1.25,-1.050781
614305.0,1.734375,1.144531,9.984375,-0.710938,-0.832031,0.714844,-0.916016,-1.748047,-2.066406
614342.0,3.804688,1.066406,9.070312,0.898438,-0.800781,-0.09375,-0.992188,-1.742188,-2.390625
614382.0,4.609375,-0.238281,8.800781,1.398438,-2.035156,-0.277344,-0.943359,-1.078125,-2.277344
614424.0,5.222656,-1.003906,9.339844,1.753906,-2.722656,0.34375,-0.753906,-0.988281,-1.349609
614441.0,4.53125,-0.621094,9.21875,1.382812,-2.507812,0.398438,-0.761719,-0.882812,-1.021484
614463.0,3.304688,-0.273438,9.140625,-0.421875,-1.867188,0.230469,-0.8125,-0.986328,-0.935547
614481.0,3.074219,0.222656,9.566406,-0.582031,-1.554688,0.484375,-0.976562,-1.099609,-1.0
614510.0,3.113281,0.835938,9.105469,-1.007812,-0.667969,0.59375,-1.220703,-0.996094,-1.228516
614533.0,2.960938,1.410156,8.570312,-1.304688,0.191406,-0.171875,-1.277344,-0.970703,-1.322266
614550.0,3.230469,1.910156,8.691406,-1.296875,0.445312,-0.148438,-1.425781,-1.074219,-1.53125
614575.0,3.421875,2.445312,8.574219,-1.132812,1.46875,-0.054688,-1.476562,-0.919922,-1.632812
614593.0,3.230469,2.636719,8.414062,-1.378906,1.707031,-0.183594,-1.458984,-0.496094,-1.808594
614621.0,1.238281,3.480469,8.300781,-3.273438,2.589844,-0.128906,-1.425781,-0.207031,-2.119141
614645.0,1.503906,3.785156,7.886719,-3.152344,3.035156,-0.710938,-1.326172,-0.056641,-2.181641
614660.0,1.542969,4.285156,7.53125,-3.164062,3.320312,-0.765625,-1.164062,0.195312,-2.117188
614678.0,4.1875,5.089844,5.890625,-3.058594,3.558594,-1.089844,-0.976562,0.292969,-1.96875
614700.0,9.511719,3.824219,7.535156,-4.105469,6.78125,-5.320312,-0.164062,0.457031,-1.154297
614724.0,11.464844,-4.105469,-2.652344,7.542969,-5.082031,-11.566406,0.021484,2.099609,-0.361328
614740.0,1.3125,1.527344,15.433594,3.003906,-5.742188,-1.578125,1.289062,2.847656,-0.652344
614762.0,4.339844,2.523438,9.875,1.253906,1.164062,0.6875,0.582031,1.279297,-0.357422
614781.0,5.527344,1.257812,9.183594,0.269531,-0.363281,0.003906,0.716797,1.265625,-0.246094
614795.0,1.351562,1.71875,9.945312,-2.148438,0.769531,0.578125,0.615234,1.080078,-0.259766
614810.0,0.203125,2.75,10.484375,-2.117188,0.476562,0.9375,0.314453,0.753906,-0.265625
614834.0,1.082031,2.214844,9.800781,-1.339844,0.496094,0.484375,0.138672,0.478516,-0.203125
614873.0,1.964844,2.101562,9.492188,-0.363281,0.335938,0.15625,0.033203,0.126953,-0.083984
614890.0,2.308594,1.910156,9.457031,-0.242188,0.25,0.15625,0.021484,0.044922,-0.019531
614913.0,2.308594,1.945312,9.378906,0.003906,0.171875,0.039062,0.017578,0.039062,-0.011719
614944.0,2.078125,1.871094,9.378906,-0.109375,0.128906,0.039062,0.029297,-0.001953,0.015625
614960.0,2.234375,1.945312,9.339844,-0.0625,0.082031,0.039062,0.037109,-0.013672,0.023438
614984.0,2.5,1.945312,9.296875,0.195312,0.148438,-0.03125,0.033203,-0.005859,0.025391
615001.0,2.460938,1.945312,9.296875,0.195312,0.148438,-0.03125,0.025391,0.023438,0.023438
615022.0,2.386719,1.945312,9.300781,0.097656,0.132812,-0.03125,0.015625,0.033203,0.017578
615040.0,2.234375,1.910156,9.339844,0.019531,0.097656,0.007812,0.007812,0.052734,0.017578
615063.0,2.078125,1.871094,9.339844,-0.195312,0.050781,0.007812,0.003906,0.048828,0.029297
615080.0,2.078125,1.910156,9.296875,-0.195312,0.011719,0.0,0.0,0.048828,0.039062
615094.0,2.269531,1.832031,9.339844,-0.148438,0.097656,-0.074219,-0.003906,0.052734,0.042969
615110.0,2.195312,1.910156,9.335938,-0.054688,0.089844,-0.039062,-0.017578,0.064453,0.046875
615132.0,2.308594,1.910156,9.339844,0.066406,0.097656,-0.007812,-0.019531,0.058594,0.048828
615173.0,2.347656,1.792969,9.335938,0.128906,-0.003906,-0.015625,-0.03125,0.060547,0.037109
615190.0,2.269531,1.871094,9.339844,0.144531,0.035156,0.023438,-0.029297,0.054688,0.023438
615204.0,2.269531,1.871094,9.378906,0.074219,0.082031,0.0625,-0.03125,0.054688,0.021484
615220.0,2.269531,1.832031,9.417969,-0.023438,-0.035156,0.03125,-0.03125,0.044922,0.021484
615244.0,2.269531,1.871094,9.378906,0.019531,-0.027344,0.03125,-0.03125,0.041016,0.023438
615260.0,2.195312,1.832031,9.414062,-0.085938,-0.019531,0.023438,-0.048828,0.03125,0.021484
615281.0,2.269531,1.753906,9.339844,0.035156,-0.121094,-0.015625,-0.046875,0.027344,0.011719
615293.0,2.308594,1.753906,9.339844,0.074219,-0.113281,-0.023438,-0.042969,0.011719,0.001953
615323.0,2.269531,1.832031,9.261719,0.035156,-0.019531,-0.097656,-0.050781,0.003906,-0.019531
615340.0,2.347656,1.679688,9.222656,0.152344,-0.171875,-0.097656,-0.041016,-0.015625,-0.046875
615354.0,2.5,1.527344,9.179688,0.152344,-0.234375,-0.167969,-0.023438,-0.019531,-0.070312
615379.0,2.425781,1.71875,9.261719,0.136719,-0.148438,-0.167969,-0.003906,-0.050781,-0.119141
615400.0,2.5,1.832031,9.261719,0.320312,-0.074219,-0.082031,-0.013672,-0.029297,-0.142578
615419.0,2.425781,1.71875,9.339844,0.226562,0.011719,-0.082031,-0.005859,-0.009766,-0.150391
615439.0,2.042969,1.71875,9.414062,-0.125,-0.101562,0.046875,-0.025391,-0.027344,-0.162109
615472.0,2.347656,1.871094,9.492188,0.066406,0.058594,0.164062,-0.037109,-0.019531,-0.191406
615489.0,2.769531,1.910156,9.140625,0.503906,0.132812,-0.039062,-0.113281,0.046875,-0.447266
615512.0,2.960938,2.445312,9.261719,0.71875,0.632812,-0.074219,-0.152344,-0.029297,-0.589844
615529.0,1.3125,2.367188,9.035156,-0.132812,-1.535156,0.230469,0.126953,0.011719,-0.501953
615549.0,1.160156,1.601562,9.601562,-1.210938,-0.164062,0.5,0.380859,0.048828,-0.238281
615568.0,1.964844,1.71875,9.683594,-0.429688,-0.367188,0.316406,0.625,-0.074219,-0.267578
615589.0,2.539062,1.832031,9.523438,0.230469,-0.339844,0.347656,0.871094,-0.134766,-0.480469
615608.0,3.574219,2.597656,10.332031,0.375,-0.347656,0.246094,1.136719,-0.253906,-0.484375
615639.0,2.921875,1.5625,10.183594,0.511719,-1.421875,0.769531,2.398438,-0.666016,-1.083984
615661.0,2.882812,1.257812,10.328125,0.59375,-2.21875,1.488281,3.570312,-0.666016,-1.611328
615679.0,3.113281,1.792969,11.476562,1.292969,-1.957031,1.570312,4.214844,-0.46875,-2.328125
615709.0,3.304688,4.359375,15.847656,1.710938,-3.5,4.054688,5.486328,-3.724609,-4.212891
615732.0,1.503906,4.246094,20.023438,-0.878906,-2.378906,13.21875,5.308594,-6.998047,-4.664062
615751.0,0.546875,4.246094,21.054688,-2.015625,-2.855469,14.824219,6.005859,-9.884766,-5.896484
615778.0,19.507812,3.210938,29.140625,23.382812,12.339844,8.71875,-0.820312,-1.462891,-6.138672
615796.0,15.601562,-4.449219,16.730469,17.492188,-5.476562,25.023438,-1.810547,0.123047,-4.851562
615818.0,4.683594,-5.988281,4.320312,7.027344,-13.695312,3.457031,-1.029297,2.992188,-1.453125
615841.0,0.890625,-6.980469,4.203125,0.710938,-15.5,-0.734375,-1.125,2.173828,-1.148438
615880.0,5.257812,-2.613281,10.179688,4.953125,-10.824219,4.742188,-1.625,0.087891,1.126953
615922.0,3.496094,1.335938,8.570312,2.707031,-6.039062,2.101562,-3.818359,1.443359,2.705078
615938.0,4.722656,2.941406,7.730469,3.554688,-4.808594,1.511719,-4.212891,1.240234,2.955078
615955.0,6.253906,3.289062,7.953125,3.707031,-3.800781,0.632812,-4.373047,1.060547,3.048828
615978.0,9.746094,5.164062,9.453125,7.164062,-0.980469,1.007812,-4.669922,0.675781,3.541016
616008.0,11.542969,7.234375,10.101562,9.675781,2.5625,1.355469,-4.634766,0.230469,3.90625
616032.0,14.917969,9.035156,9.875,12.757812,6.378906,0.664062,-4.322266,0.027344,3.830078
616051.0,16.023438,9.570312,9.527344,13.765625,7.421875,0.207031,-3.601562,0.097656,3.761719
616078.0,15.753906,17.503906,14.164062,13.460938,14.824219,3.851562,-3.0625,-1.59375,4.134766
616096.0,14.109375,19.378906,12.746094,13.105469,17.054688,4.703125,-3.173828,-2.28125,4.332031
616118.0,7.597656,20.488281,7.804688,5.386719,21.140625,-0.648438,-2.416016,-3.207031,5.578125
616135.0,8.324219,21.675781,4.28125,3.972656,21.785156,-1.265625,-1.417969,-2.001953,5.650391
616157.0,-0.984375,23.09375,0.832031,0.332031,24.550781,-7.117188,0.326172,2.328125,3.923828
616182.0,-9.527344,24.046875,-1.199219,-12.496094,26.449219,-10.292969,0.572266,1.613281,3.064453
616198.0,-2.785156,19.644531,-2.613281,-9.484375,25.296875,-11.738281,1.806641,-2.292969,1.236328
616221.0,-3.167969,3.9375,10.832031,-6.449219,5.71875,1.738281,3.425781,-0.929688,1.320312
616238.0,-12.628906,-10.734375,17.953125,-14.800781,-13.019531,7.542969,5.296875,-0.992188,-1.957031
616254.0,-2.324219,12.175781,14.585938,-16.113281,-9.671875,8.847656,5.410156,-0.798828,-1.738281
616278.0,18.285156,9.683594,-1.847656,15.929688,14.25,23.023438,2.181641,1.097656,-0.539062
616308.0,3.535156,3.171875,12.210938,-4.125,2.753906,1.992188,1.083984,1.302734,-0.072266
616331.0,2.195312,1.179688,10.328125,-0.226562,-0.15625,0.925781,-0.029297,0.328125,-0.101562
616347.0,1.886719,2.253906,9.988281,-0.6875,0.710938,0.878906,-0.046875,0.496094,-0.138672
616371.0,2.691406,1.640625,9.417969,0.417969,0.257812,-0.023438,-0.037109,0.226562,-0.099609
616387.0,3.113281,2.023438,9.375,0.433594,0.601562,0.007812,-0.103516,0.421875,-0.177734
616402.0,3.0,1.910156,9.296875,0.550781,0.546875,-0.007812,-0.052734,0.398438,-0.167969
616442.0,1.695312,2.101562,9.492188,-0.359375,0.65625,0.015625,0.037109,0.224609,-0.076172
616458.0,1.773438,1.910156,9.496094,-0.34375,0.523438,0.007812,0.027344,0.128906,-0.037109
616481.0,2.117188,1.832031,9.417969,0.109375,0.332031,-0.070312,0.017578,0.097656,-0.025391
616497.0,2.078125,1.871094,9.378906,0.15625,0.371094,-0.109375,0.0,0.103516,-0.033203
616521.0,2.078125,1.945312,9.378906,0.109375,0.414062,-0.109375,-0.009766,0.107422,-0.03125
616537.0,1.851562,1.945312,9.414062,-0.035156,0.332031,-0.03125,-0.001953,0.082031,-0.013672
616577.0,2.003906,1.910156,9.375,-0.019531,0.300781,-0.070312,0.003906,0.052734,0.001953
616592.0,2.003906,1.871094,9.375,0.027344,0.285156,-0.148438,-0.005859,0.052734,0.003906
616647.0,1.925781,1.792969,9.378906,-0.140625,0.253906,-0.148438,-0.033203,0.042969,-0.027344
616670.0,1.734375,1.832031,9.417969,-0.179688,0.207031,-0.070312,-0.033203,-0.001953,-0.015625
616687.0,1.851562,1.792969,9.375,-0.140625,0.160156,-0.109375,-0.044922,-0.011719,0.001953
616701.0,1.886719,1.753906,9.375,0.011719,0.046875,-0.109375,-0.044922,-0.005859,-0.009766
616716.0,1.582031,1.71875,9.492188,-0.0625,0.046875,-0.109375,-0.029297,-0.015625,0.005859
616740.0,1.8125,1.410156,9.5625,-0.109375,-0.238281,0.089844,0.066406,-0.001953,-0.025391
616757.0,2.234375,1.144531,9.722656,0.15625,-0.414062,0.089844,0.365234,-0.029297,-0.101562
616780.0,2.117188,1.488281,9.984375,0.1875,-0.355469,0.542969,0.615234,-0.099609,-0.154297
616796.0,3.113281,0.835938,10.449219,0.9375,-1.675781,1.148438,2.298828,-0.234375,-0.791016
616819.0,6.484375,-0.542969,14.316406,4.507812,-3.355469,5.121094,3.806641,-0.652344,-1.234375
616839.0,9.511719,-3.03125,16.621094,7.644531,-6.757812,7.71875,4.763672,-0.134766,-1.484375
616856.0,8.898438,-0.273438,21.441406,3.066406,-4.464844,9.390625,6.314453,1.689453,-2.982422
616877.0,5.949219,-2.0,20.183594,6.714844,-6.308594,14.847656,6.310547,-2.15625,-4.390625
616906.0,21.386719,1.027344,19.640625,27.980469,-3.589844,5.515625,1.041016,3.138672,2.373047
616930.0,4.683594,-3.339844,4.703125,4.542969,-10.558594,-2.015625,1.228516,5.023438,3.724609
616949.0,0.929688,-1.769531,2.519531,0.804688,-9.035156,-4.144531,0.316406,2.275391,3.275391
616976.0,2.808594,-2.421875,5.894531,-0.113281,-9.625,-1.136719,-1.029297,-0.058594,2.101562
617000.0,8.246094,-1.386719,7.039062,7.324219,-8.300781,0.0625,-1.5,0.162109,2.064453
617016.0,8.785156,-0.695312,6.273438,7.714844,-7.953125,-0.378906,-2.681641,1.251953,2.800781
617040.0,8.515625,1.410156,6.347656,7.148438,-4.558594,-1.378906,-2.90625,1.222656,3.140625
617056.0,8.703125,2.789062,6.273438,7.269531,-3.300781,-1.519531,-3.513672,0.632812,3.722656
617080.0,9.933594,4.859375,7.765625,7.972656,0.328125,-0.75,-3.814453,0.457031,3.642578
617097.0,10.660156,7.003906,9.105469,8.445312,1.953125,0.058594,-4.175781,-0.087891,3.423828
617114.0,11.421875,8.957031,9.796875,8.417969,3.363281,0.238281,-4.324219,-0.455078,3.28125
617136.0,12.15625,11.675781,8.953125,9.34375,8.578125,0.496094,-3.96875,-1.685547,2.771484
617166.0,11.695312,18.074219,7.460938,8.75,15.414062,-1.804688,-2.167969,-2.476562,3.005859
617178.0,9.472656,19.457031,7.957031,5.550781,19.148438,-1.066406,-1.695312,-2.878906,3.373047
617206.0,2.769531,22.441406,8.800781,-1.125,22.984375,1.300781,-0.386719,-1.310547,3.863281
617229.0,-2.824219,24.207031,2.480469,-7.402344,24.984375,-6.199219,0.671875,1.392578,2.900391
617246.0,-6.578125,24.007812,-2.386719,-9.03125,25.324219,-8.621094,2.34375,1.822266,2.554688
617258.0,-7.421875,22.359375,-5.792969,-11.507812,22.949219,-14.722656,3.111328,1.578125,2.03125
617285.0,-9.949219,0.796875,36.496094,-24.144531,-15.511719,16.570312,6.001953,5.751953,-0.814453
617305.0,36.597656,3.9375,8.914062,5.707031,14.65625,1.828125,1.882812,1.804688,-0.080078
617325.0,-3.359375,4.285156,11.40625,5.105469,6.050781,4.628906,0.089844,0.181641,-0.708984
617356.0,5.03125,2.253906,9.5625,-2.144531,3.289062,3.554688,-0.181641,1.029297,-0.505859
617379.0,-0.257812,2.597656,10.5625,-2.53125,1.050781,1.140625,0.044922,0.550781,-0.142578
617395.0,1.121094,1.71875,9.910156,-2.332031,1.609375,0.789062,-0.035156,0.607422,-0.136719
617420.0,1.199219,2.136719,9.839844,-0.941406,0.558594,0.390625,-0.072266,0.050781,-0.025391
617436.0,2.539062,2.0625,9.417969,-0.472656,0.445312,0.351562,-0.056641,0.181641,-0.041016
617455.0,2.003906,1.984375,9.566406,0.125,0.367188,0.0,-0.033203,0.171875,-0.056641
617477.0,2.117188,1.945312,9.339844,-0.121094,0.390625,0.039062,-0.025391,0.181641,-0.060547
617496.0,1.660156,1.945312,9.492188,-0.320312,0.34375,0.03125,-0.003906,0.1875,-0.052734
617515.0,1.660156,1.910156,9.492188,-0.328125,0.320312,-0.054688,0.001953,0.140625,-0.037109
617535.0,1.734375,1.910156,9.457031,-0.304688,0.230469,-0.007812,0.013672,0.099609,-0.025391
617556.0,1.621094,1.871094,9.492188,-0.257812,0.261719,-0.007812,0.015625,0.070312,-0.015625
617575.0,1.734375,1.910156,9.457031,-0.15625,0.246094,-0.015625,0.0,0.074219,-0.019531
617600.0,1.8125,1.910156,9.453125,-0.148438,0.222656,-0.015625,-0.007812,0.074219,-0.015625
617615.0,1.695312,1.871094,9.492188,-0.179688,0.183594,-0.015625,-0.015625,0.083984,-0.019531
617640.0,1.660156,1.832031,9.453125,-0.277344,0.121094,-0.015625,-0.027344,0.085938,-0.015625
617655.0,1.660156,1.832031,9.492188,-0.347656,0.121094,-0.015625,-0.037109,0.076172,-0.013672
617679.0,1.660156,1.871094,9.492188,-0.253906,0.152344,0.023438,-0.039062,0.076172,-0.017578
617696.0,1.695312,1.910156,9.453125,-0.238281,0.199219,0.015625,-0.039062,0.076172,-0.015625
617710.0,1.660156,1.910156,9.453125,-0.195312,0.152344,-0.023438,-0.041016,0.074219,-0.013672
617735.0,1.621094,1.832031,9.453125,-0.148438,0.113281,-0.023438,-0.044922,0.076172,-0.033203
617750.0,1.582031,1.832031,9.492188,-0.324219,0.144531,0.042969,-0.046875,0.072266,-0.029297
617766.0,1.46875,1.871094,9.492188,-0.285156,0.144531,0.007812,-0.033203,0.056641,-0.029297
617791.0,2.003906,1.601562,9.375,0.152344,-0.132812,-0.101562,-0.029297,0.0625,-0.023438
617815.0,1.660156,1.832031,9.492188,-0.183594,0.097656,0.007812,-0.013672,0.054688,-0.025391
617835.0,1.621094,1.832031,9.492188,-0.167969,0.089844,0.007812,-0.001953,0.054688,-0.017578
617860.0,1.851562,1.753906,9.453125,-0.230469,0.113281,-0.03125,0.015625,0.068359,-0.017578
617885.0,1.660156,1.792969,9.453125,-0.144531,0.066406,0.0,0.029297,0.050781,-0.005859
617899.0,1.542969,1.792969,9.453125,0.089844,0.011719,-0.109375,0.050781,0.007812,0.001953
617914.0,1.773438,1.71875,9.523438,-0.136719,-0.035156,-0.03125,0.103516,0.021484,-0.021484
617937.0,1.695312,1.792969,9.527344,-0.101562,-0.042969,0.058594,0.144531,0.011719,-0.033203
617977.0,2.460938,1.753906,9.761719,0.679688,-0.222656,0.304688,0.412109,0.005859,-0.177734
618008.0,1.773438,2.523438,10.027344,0.039062,0.289062,0.628906,0.839844,0.072266,-0.623047
618025.0,1.390625,3.289062,9.601562,-0.933594,0.753906,0.460938,0.941406,-0.271484,-1.871094
618037.0,3.152344,3.9375,9.988281,1.503906,1.335938,0.660156,1.013672,-0.109375,-2.419922
618059.0,3.457031,5.929688,8.953125,1.949219,3.070312,-0.320312,0.525391,-0.501953,-4.058594
618087.0,11.5,9.070312,7.726562,10.222656,6.039062,-1.53125,-0.632812,-1.279297,-5.828125
618107.0,14.984375,11.601562,9.796875,13.863281,8.585938,0.515625,-1.978516,-1.185547,-4.267578
618135.0,6.910156,4.054688,1.175781,12.824219,1.046875,-7.09375,-1.464844,0.03125,-1.589844
618158.0,-2.171875,3.632812,3.941406,-4.898438,0.632812,-4.460938,-1.296875,-2.251953,-2.539062
618196.0,6.753906,-0.8125,9.144531,4.589844,-2.976562,-0.199219,-0.517578,-3.345703,-2.607422
618207.0,6.140625,-2.191406,9.496094,3.789062,-4.363281,0.1875,-0.380859,-1.966797,-1.541016
618238.0,-0.488281,-1.769531,9.640625,-3.246094,-3.996094,0.472656,0.152344,-1.546875,0.158203
618254.0,-1.597656,-1.652344,10.105469,-4.214844,-3.820312,0.792969,-0.003906,-1.746094,0.267578
618278.0,-0.21875,-1.039062,10.789062,-3.601562,-3.265625,1.832031,-0.048828,-1.652344,0.238281
618294.0,-0.601562,-0.964844,10.371094,-3.613281,-3.128906,1.648438,-0.183594,-0.818359,0.384766
618318.0,-1.484375,-1.386719,8.878906,-5.226562,-3.511719,0.042969,-0.025391,-0.488281,0.695312
618334.0,-2.097656,-1.691406,7.652344,-5.578125,-3.5625,-0.671875,0.042969,-0.318359,0.623047
618348.0,9.242188,-2.957031,12.703125,-3.015625,-4.109375,6.476562,0.816406,4.677734,0.072266
618365.0,-8.914062,-7.820312,16.160156,-14.84375,-2.875,3.09375,-1.306641,4.318359,0.414062
618387.0,-5.160156,-2.917969,4.433594,-7.269531,-4.597656,-5.003906,-1.974609,4.669922,0.441406
618403.0,14.640625,-4.183594,1.484375,15.347656,-9.09375,7.347656,1.847656,1.353516,-0.419922
618427.0,-1.292969,4.398438,10.910156,-3.253906,2.453125,1.492188,1.029297,0.123047,-0.255859
618444.0,3.304688,2.523438,9.640625,-2.460938,1.132812,1.394531,0.392578,0.558594,-0.105469
618459.0,2.425781,2.597656,8.878906,-0.976562,-0.460938,0.703125,-0.0625,-0.167969,-0.142578
618483.0,1.964844,2.253906,9.183594,-0.332031,-0.164062,0.511719,-0.054688,0.136719,-0.087891
618498.0,2.5,1.984375,9.300781,-0.523438,-0.339844,0.113281,-0.078125,0.0625,-0.076172
618514.0,1.851562,1.753906,9.5625,-0.507812,-0.300781,0.261719,-0.041016,0.1875,-0.074219
618538.0,1.429688,1.945312,9.640625,-0.304688,-0.140625,0.214844,-0.019531,0.103516,-0.078125
618554.0,1.46875,1.984375,9.457031,-0.257812,-0.0625,0.097656,-0.019531,0.087891,-0.054688
618577.0,1.429688,1.945312,9.496094,-0.25,-0.132812,0.054688,-0.007812,0.066406,-0.021484
618594.0,1.503906,1.871094,9.5625,-0.089844,-0.246094,0.054688,-0.005859,0.064453,-0.017578
618617.0,1.773438,1.984375,9.492188,0.125,-0.085938,0.054688,0.013672,0.044922,-0.009766
618634.0,1.542969,1.871094,9.527344,-0.144531,-0.125,0.054688,0.013672,0.041016,-0.009766
618663.0,1.3125,1.832031,9.527344,-0.585938,-0.316406,0.089844,0.037109,-0.058594,0.025391
618687.0,1.390625,1.871094,9.523438,-0.257812,-0.207031,0.089844,0.019531,-0.121094,0.019531
618703.0,1.503906,1.910156,9.527344,-0.1875,-0.207031,0.0625,0.023438,-0.158203,0.03125
618744.0,1.886719,1.871094,9.453125,0.039062,-0.167969,0.078125,0.021484,-0.210938,0.041016
618758.0,1.851562,1.832031,9.492188,0.0,-0.324219,0.152344,0.015625,-0.208984,0.035156
618773.0,1.925781,1.753906,9.523438,-0.054688,-0.277344,0.113281,-0.003906,-0.216797,0.019531
618798.0,2.117188,1.792969,9.605469,0.28125,-0.269531,0.207031,-0.027344,-0.183594,0.0
618813.0,1.886719,1.832031,9.492188,0.304688,-0.230469,0.207031,-0.060547,-0.185547,-0.046875
618837.0,2.15625,2.367188,9.527344,0.265625,0.320312,0.128906,-0.126953,-0.138672,-0.007812
618853.0,2.15625,2.40625,9.945312,0.171875,0.535156,0.550781,-0.351562,-0.091797,0.142578
618876.0,1.851562,0.757812,9.300781,-0.101562,-1.132812,-0.117188,-0.587891,-0.128906,0.119141
618893.0,1.121094,1.144531,8.691406,-0.601562,-0.808594,-0.429688,-0.300781,-0.097656,0.070312
618916.0,0.507812,0.949219,8.613281,-1.484375,-0.824219,-0.820312,-0.044922,-0.234375,-0.023438
618933.0,1.429688,1.296875,9.074219,-0.265625,-0.476562,-0.507812,0.40625,0.238281,0.09375
618948.0,0.855469,1.5625,8.722656,-0.546875,-0.539062,-0.191406,0.222656,-0.048828,-0.003906
618963.0,2.730469,1.296875,9.070312,0.324219,-1.167969,0.230469,0.453125,0.417969,0.035156
618986.0,1.925781,2.136719,10.179688,0.050781,0.207031,0.765625,0.125,0.40625,-0.027344
619026.0,1.660156,1.945312,9.644531,-0.175781,-0.007812,0.222656,0.128906,0.052734,0.066406
619043.0,2.042969,1.601562,9.527344,0.042969,-0.320312,0.191406,0.072266,-0.001953,0.033203
619066.0,2.078125,1.371094,9.640625,0.242188,-0.597656,0.230469,0.041016,0.044922,-0.050781
619083.0,1.542969,1.5625,9.5625,0.058594,-0.640625,0.191406,0.179688,0.019531,-0.011719
619103.0,1.351562,1.5625,9.757812,-0.429688,-0.167969,0.277344,0.359375,0.015625,0.179688
619122.0,0.585938,1.753906,9.910156,-0.859375,-0.390625,0.328125,0.636719,-0.101562,0.349609
619143.0,2.347656,1.144531,10.101562,0.144531,-1.175781,0.851562,1.039062,-0.140625,0.205078
619163.0,2.347656,1.296875,10.523438,0.472656,-1.105469,0.757812,1.40625,-0.292969,0.056641
619176.0,2.234375,1.371094,10.484375,0.441406,-1.265625,1.589844,1.515625,-0.308594,0.064453
619215.0,-3.511719,-9.660156,14.007812,-5.800781,-12.714844,4.996094,0.755859,-0.789062,0.392578
619233.0,-5.582031,-12.148438,15.773438,-7.605469,-14.171875,10.847656,-0.09375,-0.353516,-0.490234
619248.0,-3.4375,-7.589844,16.265625,-2.3125,-5.28125,10.601562,-1.035156,0.15625,-0.759766
619285.0,2.691406,-4.296875,8.269531,0.777344,-6.414062,-1.117188,-2.9375,2.005859,0.365234
619302.0,0.164062,-3.914062,5.65625,-0.835938,-6.09375,-3.289062,-1.941406,1.605469,1.09375
619327.0,0.890625,1.296875,9.074219,-0.429688,0.007812,-0.570312,-1.322266,1.464844,1.078125
619357.0,1.351562,5.316406,11.75,0.367188,4.371094,2.023438,-1.060547,0.869141,0.197266
619396.0,5.527344,6.199219,8.917969,4.699219,5.863281,-0.875,-1.888672,0.21875,0.064453
619412.0,5.183594,6.007812,6.84375,4.875,5.960938,-1.992188,-1.984375,0.359375,0.365234
619436.0,1.964844,6.15625,4.777344,1.238281,6.621094,-5.019531,-1.933594,0.277344,0.453125
619452.0,0.855469,5.695312,3.398438,0.457031,6.664062,-5.617188,-1.775391,-0.578125,0.181641
619475.0,1.964844,6.238281,3.628906,1.035156,7.410156,-6.082031,-1.527344,-0.763672,-0.226562
619492.0,4.035156,7.460938,-2.578125,0.734375,7.351562,-6.785156,-0.158203,-1.162109,0.492188
619515.0,-3.933594,-5.753906,0.179688,-5.316406,-4.558594,-9.460938,1.6875,-2.908203,0.603516
619532.0,-0.640625,-0.082031,15.699219,-7.015625,-11.433594,-1.613281,5.201172,-2.244141,-0.162109
619552.0,6.792969,8.039062,15.3125,1.234375,9.21875,3.230469,2.972656,-1.279297,-1.263672
619572.0,7.824219,6.238281,19.027344,4.277344,5.589844,6.410156,2.253906,-0.523438,-0.447266
619586.0,10.007812,5.472656,17.453125,12.222656,3.4375,12.824219,1.488281,0.208984,-0.318359
619615.0,4.53125,1.296875,5.660156,2.359375,0.039062,-3.800781,0.34375,0.642578,-0.142578
619631.0,1.542969,1.871094,9.03125,-2.328125,0.113281,1.476562,0.324219,0.447266,-0.048828
619654.0,0.664062,1.335938,10.027344,-0.511719,0.535156,-0.4375,0.384766,0.402344,-0.017578
619667.0,3.304688,1.027344,8.800781,-1.3125,-0.070312,0.550781,0.441406,0.369141,-0.007812
619696.0,2.117188,1.792969,9.566406,0.304688,0.199219,0.082031,0.583984,0.515625,-0.0625
619711.0,1.8125,2.214844,9.988281,0.238281,0.414062,0.351562,0.466797,0.412109,-0.070312
619735.0,1.582031,2.332031,9.800781,-0.082031,0.550781,0.320312,0.298828,0.183594,-0.048828
619751.0,1.542969,2.023438,9.605469,0.039062,0.410156,0.167969,0.146484,0.095703,-0.025391
619775.0,1.46875,1.871094,9.492188,-0.15625,0.011719,0.023438,0.123047,0.078125,-0.019531
619801.0,1.542969,1.832031,9.492188,-0.105469,-0.089844,0.03125,0.121094,0.056641,-0.017578
619822.0,1.429688,2.023438,9.492188,-0.171875,0.078125,0.066406,0.109375,0.029297,-0.005859
619844.0,1.621094,2.101562,9.453125,0.019531,0.15625,-0.007812,0.095703,0.015625,0.005859
619861.0,1.621094,2.023438,9.457031,0.066406,0.101562,0.03125,0.050781,0.017578,0.007812
619885.0,1.542969,2.023438,9.457031,-0.050781,0.054688,0.0,0.037109,0.011719,0.009766
619901.0,1.621094,1.984375,9.457031,-0.050781,0.015625,0.0,0.025391,0.005859,0.009766
619924.0,1.660156,1.984375,9.496094,0.074219,0.0,0.039062,0.021484,0.005859,0.005859
619956.0,1.660156,1.984375,9.457031,0.082031,-0.015625,0.0,0.056641,0.083984,-0.023438
619981.0,1.199219,2.0625,9.457031,-0.289062,0.007812,0.007812,0.042969,0.027344,0.003906
620002.0,1.542969,2.0625,9.414062,-0.125,0.078125,0.007812,0.03125,0.0,0.017578
620035.0,1.660156,2.0625,9.453125,0.097656,0.03125,0.007812,0.021484,-0.017578,0.029297
620051.0,1.734375,2.023438,9.414062,0.171875,0.015625,-0.03125,0.017578,0.005859,0.013672
620075.0,1.621094,2.023438,9.417969,0.058594,-0.03125,-0.03125,0.019531,0.039062,0.001953
620091.0,1.542969,2.023438,9.457031,0.019531,-0.03125,0.0,0.021484,0.054688,0.0
620114.0,1.582031,2.0625,9.453125,0.035156,0.0,0.0,0.019531,0.050781,-0.001953
620144.0,1.46875,2.023438,9.457031,-0.0625,-0.046875,0.007812,0.013672,0.052734,-0.005859
620160.0,1.429688,2.023438,9.453125,-0.101562,-0.046875,0.007812,0.007812,0.025391,0.001953
620184.0,1.390625,2.101562,9.457031,-0.132812,0.03125,0.0,-0.003906,0.001953,0.013672
620201.0,1.351562,2.101562,9.453125,-0.132812,0.03125,0.0,-0.011719,-0.029297,0.019531
620224.0,1.542969,2.0625,9.414062,0.011719,-0.007812,-0.03125,-0.009766,-0.03125,0.017578
620264.0,1.390625,1.984375,9.453125,-0.164062,-0.078125,0.007812,-0.046875,-0.039062,0.007812
620281.0,1.621094,2.023438,9.417969,-0.085938,-0.03125,-0.03125,-0.066406,-0.072266,0.005859
620295.0,1.621094,1.984375,9.417969,0.082031,-0.0625,0.007812,-0.064453,-0.0625,0.003906
620311.0,1.660156,1.984375,9.496094,0.117188,-0.054688,0.007812,-0.058594,-0.044922,0.001953
620333.0,1.773438,1.984375,9.453125,0.234375,-0.054688,0.007812,-0.058594,-0.025391,0.001953
620344.0,1.734375,1.984375,9.492188,0.195312,-0.046875,0.046875,-0.060547,0.005859,-0.011719
620374.0,1.542969,1.871094,9.492188,0.003906,-0.136719,0.039062,-0.066406,0.019531,-0.029297
620391.0,1.621094,2.023438,9.523438,-0.070312,-0.089844,0.039062,-0.070312,0.003906,-0.029297
620413.0,2.042969,2.214844,9.644531,0.496094,0.230469,0.175781,-0.162109,-0.042969,-0.03125
620443.0,2.308594,1.984375,9.527344,0.746094,0.078125,0.042969,-0.294922,-0.039062,-0.035156
620460.0,2.578125,1.871094,9.417969,0.871094,0.035156,0.035156,-0.335938,0.263672,0.017578
620484.0,2.578125,1.640625,9.453125,1.09375,-0.132812,-0.070312,-0.326172,0.408203,0.154297
620500.0,2.730469,1.601562,9.414062,1.007812,-0.0625,0.027344,-0.316406,0.396484,0.373047
620524.0,1.964844,1.335938,9.21875,0.589844,-0.304688,-0.347656,-0.259766,0.292969,0.660156
620540.0,2.539062,1.335938,8.796875,1.296875,-0.351562,-0.546875,-0.099609,0.25,0.917969
620563.0,3.191406,1.832031,10.371094,1.839844,0.292969,0.777344,-0.121094,0.195312,0.986328
620593.0,3.457031,1.792969,9.417969,2.042969,0.371094,-0.1875,-0.175781,0.076172,1.855469
620610.0,1.46875,1.910156,9.644531,0.789062,0.753906,-0.265625,-0.236328,0.208984,1.837891
620634.0,0.355469,2.292969,11.367188,-1.089844,1.066406,1.742188,-0.400391,0.322266,1.566406
620650.0,0.050781,2.75,12.019531,-1.144531,1.289062,2.070312,-0.714844,0.429688,1.316406
620674.0,1.851562,2.828125,12.058594,0.5,1.953125,2.371094,-1.058594,0.392578,1.181641
620690.0,3.917969,2.597656,12.175781,1.527344,1.886719,2.46875,-1.353516,0.564453,1.271484
620712.0,6.179688,2.136719,12.019531,5.015625,1.839844,2.261719,-1.521484,0.878906,1.59375
620730.0,4.300781,2.023438,11.675781,4.226562,2.089844,2.628906,-1.605469,1.378906,1.9375
620745.0,3.039062,1.832031,11.289062,0.242188,2.503906,0.574219,-1.480469,1.605469,1.847656
620761.0,-3.359375,1.71875,9.144531,-2.828125,2.957031,-0.476562,-1.373047,1.070312,1.019531
620783.0,-15.65625,10.105469,6.425781,-16.054688,10.777344,-3.394531,-0.853516,0.935547,0.074219
620813.0,13.414062,6.277344,4.738281,11.714844,7.449219,-4.894531,-2.208984,-4.134766,-5.119141
620830.0,19.664062,2.558594,4.128906,21.867188,2.609375,-11.710938,-1.291016,-1.011719,-3.482422
620863.0,5.945312,-0.007812,-0.546875,3.347656,1.179688,-9.96875,0.634766,-2.123047,-2.146484
620900.0,14.222656,-2.113281,5.007812,9.402344,-0.636719,-5.140625,1.533203,-4.570312,-1.169922
620919.0,11.808594,-2.613281,7.230469,9.140625,-2.09375,-2.398438,1.714844,-3.871094,-0.193359
620934.0,9.550781,-2.839844,7.382812,2.40625,-2.988281,-0.898438,1.673828,-3.783203,0.140625
620949.0,5.640625,-3.609375,8.035156,0.824219,-3.433594,-0.304688,1.603516,-3.4375,0.130859
620973.0,4.722656,-4.757812,6.503906,-1.605469,-5.257812,-0.988281,1.611328,-2.699219,0.039062
620989.0,3.039062,-4.796875,6.808594,-2.605469,-5.566406,-0.6875,2.083984,-2.345703,0.466797
621006.0,0.855469,-3.761719,7.269531,-3.664062,-5.523438,-0.332031,2.355469,-1.869141,0.648438
621029.0,-2.976562,-2.613281,11.410156,-10.742188,-4.074219,2.035156,3.033203,1.667969,0.039062
621044.0,23.722656,-1.578125,28.03125,0.675781,-5.589844,24.242188,2.869141,15.525391,0.267578
621060.0,-41.4375,2.636719,19.679688,-31.550781,-0.359375,10.71875,0.246094,3.414062,2.003906
621084.0,5.375,2.023438,12.746094,1.539062,0.4375,3.902344,-0.806641,-2.246094,-0.009766
621100.0,19.851562,-4.105469,-9.585938,15.070312,2.304688,-3.914062,-1.544922,0.34375,-2.167969
621122.0,-4.546875,3.132812,14.164062,-7.851562,1.351562,5.15625,0.96875,0.794922,0.017578
621140.0,2.003906,4.359375,10.027344,-3.875,1.871094,2.199219,1.513672,2.59375,-0.367188
621154.0,5.796875,6.695312,7.082031,6.453125,2.789062,-6.015625,-0.544922,0.107422,-0.996094
621193.0,-0.140625,4.054688,10.066406,-2.617188,1.992188,0.878906,0.302734,1.570312,-0.330078
621209.0,1.660156,2.445312,9.21875,-1.007812,0.054688,0.898438,-0.0625,0.419922,-0.078125
621233.0,1.886719,1.832031,9.71875,-0.363281,-0.207031,0.484375,0.021484,0.369141,-0.128906
621249.0,2.042969,2.253906,9.257812,0.214844,-0.015625,-0.019531,-0.025391,0.263672,-0.087891
621272.0,1.886719,2.023438,9.457031,-0.222656,-0.015625,0.1875,-0.048828,0.300781,-0.058594
621289.0,2.117188,1.984375,9.414062,0.164062,-0.121094,0.140625,-0.058594,0.265625,-0.046875
621312.0,1.851562,2.136719,9.335938,-0.132812,0.128906,0.046875,-0.046875,0.199219,-0.041016
621329.0,1.503906,1.910156,9.5625,-0.148438,0.0625,0.125,-0.027344,0.117188,-0.013672
621344.0,1.695312,1.871094,9.492188,0.042969,-0.121094,0.117188,-0.013672,0.125,-0.003906
621358.0,1.8125,1.679688,9.523438,-0.171875,-0.238281,0.117188,0.003906,0.060547,-0.005859
621383.0,2.003906,2.023438,9.378906,0.136719,0.03125,0.070312,0.033203,0.050781,-0.017578
621399.0,2.003906,2.214844,9.257812,0.058594,0.109375,0.070312,0.027344,0.046875,-0.015625
621422.0,2.078125,2.101562,9.296875,0.234375,0.101562,-0.007812,0.029297,0.005859,0.003906
621438.0,2.117188,1.871094,9.457031,-0.0625,0.0625,-0.042969,0.037109,0.017578,0.003906
621462.0,2.078125,1.945312,9.339844,0.273438,-0.054688,0.03125,0.041016,0.060547,0.005859
621479.0,1.964844,1.984375,9.339844,0.320312,-0.015625,-0.007812,0.011719,0.066406,-0.003906
621498.0,2.078125,1.910156,9.296875,0.527344,-0.128906,-0.082031,0.005859,0.050781,-0.021484
621519.0,1.851562,1.984375,9.378906,0.199219,-0.023438,0.109375,0.007812,0.03125,-0.025391
621532.0,1.886719,1.984375,9.457031,0.214844,-0.015625,0.140625,0.009766,0.039062,-0.025391
621548.0,2.078125,1.984375,9.375,0.144531,-0.015625,0.070312,0.013672,0.037109,-0.027344
621572.0,2.003906,1.945312,9.335938,0.285156,-0.054688,0.03125,-0.001953,0.041016,-0.041016
621589.0,1.925781,2.214844,9.179688,0.332031,-0.054688,-0.007812,-0.087891,-0.068359,-0.068359
621611.0,1.660156,1.984375,9.457031,-0.035156,0.0,0.140625,-0.021484,0.056641,-0.035156
621642.0,1.851562,1.945312,9.375,0.179688,-0.039062,0.0625,-0.007812,0.025391,-0.023438
621659.0,2.042969,1.910156,9.375,0.253906,-0.039062,0.101562,0.005859,-0.013672,-0.037109
621681.0,1.773438,2.0625,9.339844,0.109375,0.078125,0.023438,0.013672,-0.015625,-0.042969
621722.0,1.8125,2.023438,9.378906,0.171875,0.03125,0.0625,0.044922,0.019531,-0.037109
621738.0,1.8125,2.023438,9.417969,0.164062,0.0625,0.070312,0.042969,-0.052734,-0.03125
621762.0,1.734375,2.101562,9.378906,0.09375,0.09375,0.070312,0.052734,0.001953,-0.009766
621779.0,2.078125,1.984375,9.375,0.285156,-0.03125,0.109375,0.056641,0.005859,-0.013672
621802.0,1.886719,1.945312,9.453125,0.253906,-0.085938,0.15625,0.064453,0.011719,-0.021484
621818.0,1.734375,1.910156,9.523438,0.101562,0.0625,0.078125,0.091797,0.007812,-0.011719
621838.0,1.695312,2.332031,9.335938,0.101562,0.207031,0.039062,0.050781,0.027344,0.0
621858.0,1.660156,2.253906,9.300781,0.0625,0.277344,0.039062,-0.011719,0.025391,-0.007812
621878.0,2.003906,1.984375,9.457031,0.269531,-0.109375,0.117188,0.011719,0.025391,-0.009766
621902.0,1.773438,2.101562,9.378906,0.171875,0.039062,0.078125,0.029297,0.03125,-0.017578
621917.0,1.886719,2.101562,9.335938,0.179688,0.039062,0.078125,0.039062,0.021484,-0.013672
621941.0,1.8125,2.175781,9.378906,0.226562,0.097656,0.078125,0.033203,0.03125,-0.013672
621958.0,1.695312,2.175781,9.378906,0.226562,0.066406,0.117188,0.015625,0.013672,0.0
621982.0,1.773438,2.0625,9.417969,0.195312,-0.007812,0.117188,0.017578,-0.003906,0.005859
621998.0,1.925781,2.023438,9.300781,0.347656,-0.015625,0.0,0.029297,0.0,0.001953
622021.0,1.851562,2.101562,9.375,0.273438,0.015625,0.078125,0.046875,0.011719,0.001953
622037.0,1.8125,2.175781,9.339844,0.234375,0.050781,0.085938,0.035156,0.019531,0.003906
622061.0,1.773438,2.253906,9.296875,0.203125,0.160156,0.0,-0.003906,0.025391,0.003906
622078.0,1.8125,2.101562,9.375,0.25,0.042969,0.039062,-0.011719,0.017578,0.003906
622091.0,1.851562,2.0625,9.375,0.332031,0.007812,0.078125,-0.003906,0.023438,0.0
622108.0,1.734375,2.136719,9.417969,0.21875,0.007812,0.117188,0.013672,0.015625,0.003906
622131.0,1.695312,2.175781,9.378906,0.148438,0.082031,0.078125,0.013672,0.001953,0.013672
622148.0,1.886719,2.175781,9.339844,0.21875,0.089844,0.078125,-0.005859,0.003906,0.011719
622171.0,1.8125,2.101562,9.375,0.023438,-0.03125,-0.007812,-0.015625,0.015625,0.005859
622187.0,1.734375,2.101562,9.378906,0.023438,0.003906,-0.046875,-0.003906,0.007812,0.003906
622228.0,1.773438,2.101562,9.378906,-0.054688,0.011719,0.0,-0.001953,0.005859,0.013672
622242.0,1.8125,2.136719,9.375,0.023438,0.003906,-0.007812,0.003906,0.003906,0.015625
622262.0,1.886719,2.136719,9.335938,0.097656,0.003906,-0.046875,0.007812,0.001953,0.007812
622281.0,1.8125,2.136719,9.335938,0.023438,0.011719,-0.03125,0.007812,0.003906,0.005859
622297.0,1.8125,2.101562,9.375,0.023438,-0.03125,0.046875,0.0,0.001953,0.003906
622320.0,1.8125,2.136719,9.375,0.015625,0.003906,0.0,-0.001953,0.005859,0.009766
622360.0,1.851562,2.136719,9.335938,0.054688,0.003906,-0.039062,0.003906,0.009766,0.005859
622377.0,1.8125,2.136719,9.414062,0.015625,-0.03125,-0.039062,0.003906,0.007812,0.003906
622392.0,1.773438,2.101562,9.378906,0.015625,-0.023438,0.0,0.005859,0.005859,0.005859
622408.0,1.8125,2.136719,9.414062,-0.023438,0.011719,0.0,0.007812,0.005859,0.003906
622429.0,1.851562,2.136719,9.375,0.054688,0.011719,0.0,0.005859,0.005859,0.001953
622440.0,1.851562,2.101562,9.335938,0.054688,-0.023438,-0.039062,0.003906,0.013672,0.003906
622469.0,1.773438,2.136719,9.417969,-0.023438,0.003906,0.039062,0.003906,0.011719,0.001953
622510.0,1.773438,2.136719,9.417969,-0.015625,0.011719,0.039062,-0.003906,0.013672,0.001953
622527.0,1.773438,2.136719,9.378906,-0.054688,-0.023438,0.0,0.001953,0.005859,-0.001953
622556.0,1.773438,2.136719,9.339844,0.023438,0.011719,0.0,0.001953,0.017578,0.0
622580.0,1.734375,2.136719,9.378906,-0.046875,0.003906,0.0,0.003906,0.013672,0.003906
622597.0,1.773438,2.136719,9.378906,0.03125,-0.03125,0.0,0.009766,0.003906,0.001953
622620.0,1.734375,2.136719,9.378906,-0.046875,-0.003906,0.0,0.007812,0.007812,0.0
622637.0,1.773438,2.136719,9.378906,-0.007812,-0.003906,0.0,0.0,0.005859,0.0
622659.0,1.773438,2.136719,9.378906,0.0,-0.003906,0.0,0.003906,0.003906,0.001953
622677.0,1.8125,2.136719,9.375,0.039062,-0.039062,0.0,-0.001953,0.003906,-0.001953
622698.0,1.773438,2.101562,9.378906,0.039062,-0.003906,0.039062,-0.001953,0.007812,0.0
622731.0,1.773438,2.175781,9.335938,0.0,0.035156,-0.039062,-0.003906,0.009766,0.003906
622747.0,1.734375,2.175781,9.375,-0.007812,-0.039062,0.0,-0.003906,0.007812,0.001953
622770.0,1.773438,2.136719,9.378906,0.0,-0.003906,-0.007812,-0.005859,0.005859,0.001953
622787.0,1.773438,2.175781,9.375,-0.039062,0.003906,0.0,0.001953,0.001953,0.003906
622809.0,1.773438,2.101562,9.378906,0.007812,-0.039062,-0.007812,-0.001953,0.003906,-0.001953
622827.0,1.734375,2.136719,9.378906,0.007812,-0.003906,-0.007812,-0.005859,0.009766,0.001953
622841.0,1.773438,2.136719,9.378906,0.007812,-0.03125,0.0,0.001953,0.005859,0.001953
622856.0,1.773438,2.136719,9.378906,-0.03125,0.003906,-0.039062,0.003906,0.003906,0.003906
622879.0,1.734375,2.136719,9.339844,-0.03125,-0.003906,-0.046875,0.003906,0.005859,0.001953
622890.0,1.8125,2.136719,9.375,0.046875,0.003906,-0.007812,-0.003906,0.003906,0.005859
622919.0,1.773438,2.136719,9.378906,0.007812,0.003906,0.0,-0.003906,0.003906,0.001953
622959.0,1.773438,2.136719,9.378906,0.007812,0.003906,0.0,-0.001953,0.005859,0.001953
622976.0,1.773438,2.136719,9.378906,0.007812,0.003906,0.0,-0.001953,0.007812,0.001953
622990.0,1.773438,2.136719,9.417969,0.007812,0.003906,0.0,-0.003906,0.005859,0.0
623006.0,1.8125,2.101562,9.375,0.054688,0.003906,-0.039062,-0.005859,0.005859,0.001953
