Time,ax,ay,az,lax,lay,laz,gx,gy,gz
838375.0,3.929688,-1.359375,-12.285156,-3.898438,1.347656,-6.800781,-0.484375,-0.621094,-0.041016
838399.0,10.09375,-4.269531,-15.34375,2.453125,-1.730469,-9.894531,0.460938,-0.078125,-0.03125
838415.0,13.464844,-0.632812,-16.109375,4.859375,-0.375,-11.265625,1.265625,0.564453,0.140625
838439.0,13.964844,0.59375,-17.414062,6.191406,3.351562,-12.234375,0.316406,1.460938,0.107422
838455.0,13.351562,-2.203125,-19.75,5.683594,1.765625,-13.371094,0.152344,2.46875,0.214844
838478.0,17.757812,-5.457031,-18.375,9.523438,-2.589844,-13.976562,0.345703,3.296875,0.347656
838495.0,24.191406,-5.957031,-10.40625,12.523438,-3.703125,-11.113281,0.179688,3.919922,-0.107422
838512.0,25.109375,-5.535156,-0.714844,15.660156,-3.042969,-6.59375,-0.210938,4.154297,-0.496094
838535.0,14.15625,-8.214844,6.375,9.699219,-2.511719,8.441406,-1.408203,5.09375,-1.197266
838557.0,3.351562,-10.132812,4.878906,-6.125,-7.828125,6.347656,-0.240234,4.376953,-0.871094
838588.0,-1.855469,-2.242188,-4.007812,-11.449219,0.03125,-3.164062,0.330078,1.419922,0.177734
838604.0,1.515625,4.808594,1.46875,-9.757812,3.136719,0.339844,-0.3125,-1.515625,0.576172
838628.0,0.058594,2.695312,-1.824219,-9.464844,5.128906,-0.457031,-1.164062,-1.550781,0.566406
838644.0,-1.589844,-0.402344,-1.59375,-11.195312,3.40625,-0.015625,-1.333984,-1.814453,0.076172
838668.0,1.519531,-0.324219,-0.980469,-7.875,2.082031,1.175781,0.630859,-1.792969,-0.089844
838684.0,0.941406,1.359375,0.089844,-8.226562,2.96875,1.929688,0.974609,-1.384766,-0.083984
838708.0,0.941406,2.667969,1.203125,-8.332031,5.09375,3.78125,0.564453,-0.742188,-0.191406
838724.0,0.328125,2.3125,2.160156,-8.625,5.007812,3.933594,0.107422,-0.015625,-0.34375
838744.0,0.289062,1.628906,1.890625,-9.390625,4.484375,5.152344,0.144531,0.380859,-0.375
838765.0,0.820312,0.59375,-0.140625,-8.503906,3.3125,3.320312,-0.167969,0.703125,-0.345703
838779.0,0.859375,0.324219,0.089844,-8.226562,2.382812,2.886719,-0.322266,0.767578,-0.271484
838794.0,0.863281,-0.976562,0.089844,-8.289062,1.96875,3.007812,-0.128906,0.712891,-0.205078
838818.0,0.136719,-2.773438,0.050781,-9.214844,-0.675781,2.222656,0.236328,0.257812,-0.21875
838834.0,0.328125,-2.585938,0.933594,-9.023438,-0.453125,2.707031,0.701172,-0.271484,-0.214844
838858.0,-3.65625,-2.777344,-7.953125,-12.945312,-0.699219,-5.734375,0.488281,-0.884766,0.085938
838874.0,-4.996094,-0.285156,-15.691406,-14.269531,-1.3125,-8.292969,-0.037109,-3.708984,1.021484
838896.0,44.304688,-7.027344,-2.628906,35.554688,-4.738281,0.925781,-2.925781,-5.298828,1.707031
838928.0,55.640625,-38.59375,8.75,47.308594,-36.382812,13.171875,0.970703,-2.982422,-0.265625
838944.0,55.800781,6.914062,-0.828125,54.996094,-4.394531,1.828125,2.132812,-4.087891,-0.958984
838957.0,15.265625,1.550781,-16.796875,7.476562,4.003906,-11.582031,1.136719,-3.0625,-1.705078
838974.0,-9.59375,9.636719,-19.949219,-4.785156,7.765625,-21.089844,0.306641,-0.884766,-0.691406
838995.0,-19.628906,9.441406,-18.179688,-17.21875,11.957031,-14.429688,-1.685547,0.167969,0.527344
839014.0,56.488281,-12.738281,-17.988281,10.929688,-0.152344,-8.964844,-1.289062,0.289062,1.257812
839035.0,0.75,-1.933594,-20.710938,48.914062,-10.566406,-12.332031,0.607422,0.962891,0.191406
839054.0,17.066406,-2.96875,-20.554688,12.679688,-1.460938,-14.148438,1.548828,2.166016,-0.087891
839077.0,15.421875,-1.933594,-17.417969,7.179688,0.480469,-12.78125,1.300781,3.123047,-0.0625
839117.0,24.648438,-8.023438,1.316406,10.535156,-4.621094,7.035156,-1.550781,4.925781,-1.033203
839134.0,9.410156,-5.496094,4.34375,5.628906,-3.757812,9.707031,0.171875,5.058594,-0.849609
839158.0,-4.921875,-5.304688,-1.9375,-14.507812,-3.445312,-0.398438,-0.816406,4.042969,-0.054688
839174.0,-1.050781,-2.394531,1.929688,-13.375,-0.105469,9.039062,-2.623047,1.015625,0.638672
839197.0,1.628906,-0.441406,1.851562,-8.027344,1.503906,3.085938,-1.513672,-0.800781,0.441406
839238.0,-1.894531,-1.894531,-0.484375,-11.472656,0.105469,1.34375,-0.751953,-1.853516,0.087891
839254.0,0.25,-2.738281,-1.441406,-10.40625,-0.746094,1.273438,1.203125,-2.013672,-0.175781
839277.0,1.054688,0.59375,-1.097656,-8.375,2.648438,1.363281,2.78125,-1.519531,-0.244141
839294.0,-0.363281,3.117188,-0.40625,-9.148438,4.304688,1.472656,2.761719,-1.041016,-0.242188
839324.0,1.054688,3.890625,2.351562,-8.742188,6.882812,5.050781,1.095703,-0.474609,-0.087891
839347.0,0.480469,2.316406,0.894531,-8.824219,4.574219,3.582031,-0.035156,-0.234375,-0.011719
839364.0,0.097656,1.589844,0.550781,-9.191406,4.269531,3.460938,-0.900391,-0.322266,0.130859
839387.0,1.558594,0.746094,0.207031,-7.671875,2.933594,3.058594,-1.292969,-0.251953,0.072266
839404.0,1.78125,-0.09375,-0.0625,-7.398438,2.4375,2.796875,-0.939453,-0.212891,0.076172
839428.0,0.136719,-0.824219,-0.023438,-9.027344,1.261719,2.976562,-0.861328,-0.248047,0.195312
839444.0,-4.078125,-4.039062,-10.097656,-10.722656,0.796875,-4.753906,-0.429688,-1.478516,0.488281
839459.0,-4.769531,-2.203125,-14.199219,-13.347656,4.832031,-23.320312,0.556641,-2.660156,0.603516
839496.0,17.910156,-18.175781,12.769531,9.636719,-16.105469,17.542969,-1.599609,-4.025391,0.6875
839516.0,32.199219,-18.328125,-19.332031,24.152344,-16.070312,-14.292969,0.701172,-2.451172,1.503906
839538.0,41.890625,0.632812,-6.652344,34.148438,3.085938,-1.253906,1.113281,-2.566406,0.611328
839578.0,-3.386719,3.121094,-27.796875,-10.894531,5.363281,-21.96875,-0.298828,0.066406,-0.232422
839593.0,-3.808594,1.398438,-23.539062,-13.109375,4.597656,-17.855469,-0.115234,1.482422,0.126953
839617.0,38.328125,-12.046875,-17.988281,30.53125,-9.78125,-12.535156,0.566406,2.025391,0.582031
839634.0,13.351562,-5.804688,-21.746094,18.796875,-4.171875,-15.46875,1.724609,3.074219,-0.503906
839651.0,31.589844,-1.628906,-16.609375,5.210938,-3.453125,-16.835938,1.863281,2.550781,-0.064453
839674.0,22.8125,5.917969,3.84375,14.195312,8.839844,4.066406,-1.164062,4.519531,-0.958984
839689.0,22.546875,2.355469,7.0625,9.804688,-0.777344,14.175781,-2.146484,4.990234,-0.919922
839714.0,-0.015625,-13.121094,4.304688,2.839844,-5.976562,12.304688,-1.507812,4.310547,-0.705078
839728.0,-6.566406,-11.742188,-2.476562,-17.839844,-7.660156,2.222656,-0.730469,2.484375,-0.164062
839744.0,-1.011719,-6.148438,-9.605469,-13.632812,-3.5625,2.832031,1.914062,-0.705078,-0.003906
839767.0,4.425781,8.90625,1.585938,-5.175781,10.835938,3.28125,1.333984,-1.375,0.177734
839783.0,2.050781,6.609375,0.320312,-5.582031,10.398438,2.277344,-2.585938,-0.693359,0.082031
839807.0,-0.59375,-3.390625,-2.207031,-10.140625,-1.601562,-0.027344,-2.914062,-0.910156,-0.216797
839824.0,-0.628906,-6.296875,-2.628906,-9.941406,-3.746094,-0.667969,-0.085938,-0.625,-0.390625
839838.0,-1.050781,-5.570312,-2.550781,-11.53125,-2.253906,0.988281,1.580078,-0.578125,-0.416016
839863.0,-1.167969,1.09375,0.589844,-11.816406,1.84375,2.734375,3.328125,-0.357422,-0.414062
839883.0,1.554688,2.734375,1.625,-8.667969,4.082031,3.609375,2.25,-0.087891,-0.201172
839905.0,1.820312,2.628906,1.699219,-7.65625,4.445312,4.042969,0.625,0.013672,0.013672
839924.0,0.558594,1.128906,1.972656,-8.558594,3.402344,3.898438,-0.257812,-0.089844,0.052734
839956.0,-0.136719,0.058594,-0.101562,-9.539062,1.894531,2.296875,-0.615234,-0.255859,0.121094
839987.0,0.25,-1.441406,-0.445312,-9.078125,0.375,2.132812,-0.742188,-0.587891,0.126953
840004.0,-0.246094,-1.628906,-4.472656,-9.191406,-0.082031,2.316406,0.367188,-1.171875,0.1875
840027.0,-3.386719,-2.242188,-18.488281,-12.457031,-0.28125,-15.394531,0.423828,-1.912109,0.583984
840043.0,32.082031,-7.640625,-6.078125,-6.074219,-3.3125,8.664062,-3.425781,-5.771484,2.121094
840056.0,47.332031,-8.789062,0.472656,38.902344,-6.671875,4.878906,-2.355469,-2.869141,0.384766
840083.0,35.148438,-14.308594,-27.414062,15.277344,-20.277344,6.511719,2.453125,-2.958984,0.474609
840107.0,22.167969,1.898438,-18.410156,14.46875,4.351562,-13.003906,0.570312,-2.568359,-0.648438
840123.0,5.996094,0.824219,-25.648438,5.097656,2.089844,-19.167969,0.429688,-0.888672,-0.806641
840147.0,0.175781,3.925781,-22.96875,-7.386719,6.214844,-17.289062,-0.724609,0.677734,-0.080078
840163.0,9.097656,-2.203125,-19.59375,-5.34375,2.347656,-17.351562,-0.595703,1.701172,0.580078
840178.0,27.183594,-9.328125,-19.753906,25.859375,-10.273438,-15.050781,0.0625,2.199219,0.642578
840233.0,24.082031,1.476562,6.832031,17.800781,3.351562,1.378906,-1.542969,4.232422,-1.064453
840257.0,8.21875,-7.335938,7.292969,-0.953125,-5.429688,10.324219,-1.238281,4.619141,-0.871094
840273.0,-4.230469,-9.058594,-0.675781,-6.558594,-6.226562,8.230469,-1.21875,3.414062,-0.427734
840297.0,-0.210938,-5.113281,-1.9375,-9.75,-3.417969,0.046875,-1.185547,1.746094,0.238281
840314.0,3.699219,-2.316406,-3.734375,-6.996094,-4.3125,-7.117188,0.839844,-1.015625,0.222656
840328.0,4.5,3.085938,0.359375,-6.125,4.574219,1.59375,0.183594,-0.650391,0.34375
840353.0,-1.320312,-0.785156,-1.402344,-9.554688,2.308594,1.082031,-0.310547,-0.398438,-0.171875
840376.0,-2.007812,-0.898438,-1.058594,-11.5,0.882812,1.261719,1.148438,-0.228516,-0.345703
840393.0,-1.746094,0.902344,-0.023438,-11.308594,1.847656,1.753906,2.267578,0.027344,-0.226562
840409.0,-1.46875,1.320312,0.703125,-10.542969,3.320312,3.199219,2.341797,0.138672,-0.183594
840433.0,1.285156,2.28125,1.46875,-9.066406,3.957031,3.511719,1.474609,0.228516,-0.007812
840453.0,1.859375,2.203125,1.316406,-7.335938,4.324219,3.601562,0.126953,0.335938,0.130859
840473.0,1.207031,1.628906,0.589844,-7.640625,4.195312,3.285156,-0.876953,0.447266,0.216797
840493.0,0.402344,1.398438,0.703125,-8.78125,3.628906,2.894531,-1.003906,0.564453,0.181641
840513.0,0.289062,1.058594,0.207031,-9.089844,3.398438,2.554688,-0.873047,0.373047,0.201172
840543.0,0.632812,-0.554688,1.3125,-8.933594,2.066406,3.414062,-0.830078,-0.267578,0.320312
840567.0,-1.28125,-2.394531,-6.6875,-10.648438,-0.339844,-4.734375,-0.505859,-0.935547,0.462891
840583.0,-6.148438,-7.183594,-19.0625,-12.960938,-3.433594,-11.941406,-1.175781,-3.908203,1.46875
840597.0,-4.730469,-5.878906,-1.824219,5.035156,-6.695312,1.800781,-3.054688,-6.419922,2.087891
840636.0,37.789062,-24.496094,1.96875,29.496094,-22.027344,6.351562,2.914062,-4.335938,0.976562
840652.0,39.785156,9.328125,-3.316406,49.320312,-8.515625,-8.285156,1.785156,-2.998047,-0.427734
840676.0,4.695312,0.324219,-29.023438,-3.054688,3.066406,-23.851562,0.583984,-2.556641,-0.666016
840693.0,-3.542969,-0.898438,-25.226562,-8.363281,9.15625,-15.773438,-1.185547,0.285156,-0.451172
840715.0,16.835938,-3.3125,-19.675781,9.023438,-0.78125,-14.441406,-0.222656,0.865234,0.228516
840746.0,19.558594,-6.109375,-20.824219,11.386719,-3.421875,-16.183594,1.267578,3.539062,-1.099609
840763.0,28.789062,-2.816406,-13.851562,20.914062,-2.105469,-14.179688,1.304688,3.466797,-0.640625
840786.0,26.796875,2.242188,4.648438,17.976562,4.84375,8.117188,0.271484,4.083984,-0.804688
840805.0,23.964844,-1.320312,5.761719,14.921875,1.125,8.832031,-2.066406,5.488281,-0.925781
840832.0,-7.101562,-4.347656,-1.402344,-10.046875,-2.988281,8.789062,-1.720703,3.794922,-0.103516
840850.0,-7.867188,-5.226562,4.0,-16.722656,-2.316406,-0.050781,-1.943359,2.021484,0.615234
840865.0,-4.84375,-6.496094,-2.207031,-10.769531,-6.128906,-4.59375,-1.669922,0.515625,0.443359
840882.0,3.964844,1.972656,-0.0625,-7.542969,-0.167969,0.628906,-0.414062,-1.453125,0.0625
840906.0,0.402344,0.363281,-2.320312,-9.246094,2.433594,-0.722656,-0.925781,-1.091797,-0.320312
840923.0,-1.359375,-0.898438,-2.902344,-11.152344,1.660156,-1.308594,0.195312,-1.267578,-0.394531
840937.0,-0.785156,-0.976562,-2.402344,-10.09375,1.445312,-0.09375,0.943359,-1.066406,-0.410156
840977.0,-0.246094,2.089844,1.316406,-9.839844,4.058594,3.410156,1.865234,-0.34375,-0.275391
840992.0,0.941406,2.355469,1.777344,-9.265625,4.179688,3.824219,1.320312,-0.025391,-0.230469
841010.0,1.972656,2.207031,1.929688,-8.652344,4.339844,3.839844,1.017578,0.154297,-0.236328
841032.0,1.476562,2.316406,1.355469,-7.671875,4.210938,3.492188,-0.019531,0.570312,-0.083984
841056.0,0.480469,2.128906,1.46875,-9.144531,4.054688,3.257812,-0.359375,0.560547,-0.007812
841073.0,0.019531,1.4375,1.355469,-9.449219,3.664062,2.960938,-1.126953,0.234375,0.085938
841095.0,0.175781,-0.210938,2.078125,-9.433594,1.648438,3.847656,-1.03125,-0.082031,0.013672
841113.0,0.519531,-1.167969,1.855469,-9.152344,1.058594,3.6875,-0.679688,-0.339844,-0.068359
841127.0,0.058594,-1.246094,1.355469,-10.757812,0.707031,-0.707031,-0.623047,-0.517578,0.027344
841153.0,-12.542969,-6.109375,-9.484375,-17.140625,-4.28125,-20.023438,-2.166016,-5.054688,0.875
841167.0,0.976562,-8.714844,-5.65625,28.917969,-18.738281,-13.148438,-3.005859,-7.316406,1.285156
841182.0,18.484375,-21.246094,9.554688,46.316406,-18.222656,3.433594,3.628906,-1.871094,-0.677734
841206.0,75.527344,5.191406,-6.882812,67.039062,7.425781,-2.476562,2.875,-4.691406,1.646484
841224.0,57.332031,15.535156,6.792969,49.054688,17.925781,11.503906,0.15625,-3.769531,-1.060547
841252.0,5.078125,-3.582031,-31.78125,0.429688,0.445312,-8.921875,-0.759766,-0.712891,-0.148438
841282.0,-15.296875,5.421875,-12.550781,-24.90625,10.472656,-16.082031,-0.748047,0.708984,0.025391
841302.0,-3.003906,-2.125,-13.277344,-15.992188,4.28125,-7.730469,-0.691406,0.960938,0.523438
841317.0,1.972656,-5.074219,-9.984375,5.851562,-6.054688,-2.808594,-0.390625,0.75,0.6875
841332.0,26.875,-9.367188,-3.816406,24.304688,-13.054688,-2.273438,1.617188,1.455078,0.148438
841356.0,18.105469,-0.667969,-1.480469,9.929688,1.667969,3.582031,1.529297,1.128906,-0.222656
841372.0,12.777344,-1.550781,-2.015625,8.226562,1.511719,3.574219,0.058594,1.302734,-0.578125
841394.0,5.882812,-2.699219,-5.65625,-2.578125,-0.480469,-0.976562,0.056641,1.304688,-0.574219
841436.0,0.863281,-0.9375,-6.613281,-7.894531,1.171875,-2.410156,0.855469,1.224609,-0.376953
841452.0,2.625,0.324219,-5.15625,-7.382812,1.640625,-1.660156,0.705078,1.246094,-0.068359
841475.0,6.53125,0.671875,-2.972656,-2.453125,2.84375,0.738281,0.039062,1.361328,0.119141
841492.0,8.40625,-0.824219,-2.246094,-1.503906,2.34375,0.925781,-0.552734,1.357422,0.056641
841507.0,8.683594,-2.277344,-2.015625,-0.675781,-1.273438,1.289062,-0.484375,1.294922,-0.037109
841521.0,7.496094,-4.617188,-2.285156,-1.175781,-1.984375,1.035156,0.402344,1.013672,-0.132812
841534.0,7.222656,-4.617188,-2.589844,-2.011719,-2.484375,0.488281,0.927734,0.820312,-0.130859
841561.0,8.984375,-2.125,-1.785156,-0.992188,-0.445312,1.160156,1.160156,0.667969,-0.068359
841585.0,10.59375,-0.898438,-2.4375,1.25,1.359375,0.210938,0.763672,0.732422,-0.017578
841602.0,10.898438,-0.515625,-2.550781,1.417969,1.597656,-0.066406,0.324219,0.828125,0.035156
841626.0,10.019531,-0.9375,-1.824219,0.582031,1.359375,0.488281,0.103516,0.876953,0.044922
841642.0,9.632812,-1.320312,-1.136719,0.335938,1.136719,0.945312,0.091797,0.810547,0.033203
841657.0,9.484375,-1.511719,-0.941406,-0.117188,0.484375,1.363281,0.09375,0.777344,0.027344
841696.0,9.941406,-3.007812,-0.292969,0.394531,-0.671875,1.511719,0.148438,0.642578,0.039062
841712.0,9.371094,-2.625,0.78125,0.195312,-0.363281,1.910156,0.140625,0.529297,0.058594
841735.0,8.371094,-2.929688,1.546875,-1.214844,-0.578125,3.148438,0.109375,0.316406,0.041016
841752.0,7.90625,-3.621094,1.085938,-1.480469,-0.914062,2.964844,0.210938,0.083984,-0.009766
841774.0,8.261719,-3.464844,0.089844,-1.328125,-1.097656,1.636719,0.337891,-0.097656,-0.042969
841792.0,9.136719,-3.351562,-0.636719,0.316406,-0.675781,0.21875,0.212891,-0.103516,-0.023438
841815.0,10.363281,-1.511719,-1.671875,0.777344,0.855469,-0.117188,-0.074219,-0.009766,-0.011719
841832.0,10.015625,-1.246094,-1.710938,0.585938,1.078125,-0.15625,-0.298828,0.052734,-0.007812
841855.0,9.597656,-2.050781,-1.671875,0.003906,0.292969,-0.117188,-0.1875,0.066406,-0.005859
841884.0,9.253906,-2.777344,-1.441406,-0.339844,-0.433594,0.105469,0.140625,0.015625,-0.011719
841924.0,9.328125,-2.277344,-1.058594,-0.265625,0.082031,0.457031,0.21875,-0.017578,0.011719
841965.0,9.371094,-2.355469,-1.058594,-0.226562,0.011719,0.457031,-0.025391,-0.007812,0.003906
841982.0,9.027344,-2.277344,-0.941406,-0.457031,0.125,0.527344,-0.039062,-0.050781,-0.001953
842004.0,9.25,-2.394531,-0.867188,-0.339844,-0.035156,0.664062,-0.039062,-0.099609,-0.013672
842022.0,9.792969,-2.585938,-1.171875,-0.148438,-0.148438,0.640625,-0.007812,-0.09375,-0.005859
842036.0,9.976562,-2.585938,-1.519531,0.394531,-0.109375,-0.183594,-0.013672,-0.0625,0.005859
842052.0,9.710938,-2.164062,-1.9375,0.28125,0.082031,-0.308594,-0.023438,-0.015625,0.015625
842074.0,9.25,-2.242188,-1.9375,-0.332031,0.117188,-0.375,-0.025391,-0.005859,0.013672
842115.0,9.214844,-2.507812,-1.671875,-0.371094,-0.132812,-0.109375,0.179688,-0.003906,0.009766
842132.0,9.40625,-2.394531,-1.632812,-0.292969,-0.058594,-0.117188,0.146484,0.029297,0.021484
842155.0,9.332031,-2.085938,-1.480469,-0.25,0.296875,0.042969,0.044922,0.068359,0.035156
842171.0,9.210938,-2.164062,-1.402344,-0.324219,0.339844,0.035156,-0.03125,0.078125,0.041016
842199.0,9.253906,-2.625,-1.441406,-0.324219,-0.226562,0.058594,0.027344,0.068359,0.037109
842225.0,9.484375,-2.660156,-1.363281,-0.09375,-0.246094,0.113281,0.082031,0.064453,0.027344
842241.0,9.40625,-2.585938,-1.363281,-0.09375,-0.210938,0.105469,0.021484,0.105469,0.023438
842266.0,9.59375,-2.625,-1.402344,0.011719,-0.203125,0.035156,-0.035156,0.121094,0.023438
842281.0,9.410156,-2.355469,-1.210938,-0.066406,-0.085938,0.09375,-0.039062,0.134766,0.017578
842305.0,9.292969,-2.355469,-1.210938,-0.300781,0.066406,0.171875,-0.007812,0.119141,0.015625
842321.0,9.367188,-2.316406,-1.136719,-0.300781,0.066406,0.15625,0.050781,0.097656,0.015625
842344.0,9.292969,-2.394531,-1.136719,-0.292969,0.035156,0.199219,0.052734,0.097656,0.021484
842384.0,9.410156,-2.507812,-1.097656,-0.179688,-0.054688,0.199219,0.074219,0.078125,0.035156
842416.0,9.371094,-2.507812,-1.097656,-0.257812,0.191406,0.136719,0.173828,0.0625,0.037109
842455.0,9.488281,-1.933594,-1.171875,-0.09375,0.558594,0.046875,0.085938,0.085938,0.048828
842471.0,9.410156,-2.277344,-1.171875,-0.171875,0.40625,0.074219,0.017578,0.095703,0.0625
842495.0,9.410156,-2.355469,-1.289062,-0.171875,0.160156,-0.109375,0.097656,0.099609,0.078125
842511.0,9.371094,-2.242188,-1.480469,-0.25,0.089844,-0.230469,0.142578,0.109375,0.085938
842533.0,9.484375,-2.394531,-1.363281,-0.09375,0.160156,-0.238281,0.095703,0.125,0.091797
842565.0,9.40625,-2.777344,-1.25,-0.15625,-0.191406,-0.171875,0.050781,0.164062,0.095703
842581.0,9.59375,-2.929688,-1.136719,-0.078125,-0.230469,-0.035156,0.091797,0.181641,0.085938
842604.0,9.484375,-3.007812,-0.789062,-0.078125,-0.390625,0.210938,0.085938,0.203125,0.078125
842620.0,9.445312,-2.890625,-0.367188,-0.078125,-0.3125,0.339844,-0.054688,0.205078,0.03125
842644.0,9.097656,-3.390625,0.167969,-0.472656,-0.765625,1.097656,-0.164062,0.166016,0.003906
842660.0,9.027344,-3.734375,0.167969,-0.507812,-0.996094,1.128906,-0.066406,0.089844,-0.041016
842684.0,8.984375,-3.65625,-0.0625,-0.585938,-1.046875,0.828125,0.052734,0.011719,-0.072266
842700.0,9.214844,-3.351562,-0.292969,-0.472656,-0.902344,0.714844,0.117188,-0.041016,-0.107422
842724.0,9.210938,-3.007812,-0.484375,-0.363281,-0.429688,0.414062,0.085938,-0.070312,-0.130859
842740.0,9.410156,-3.007812,-0.636719,-0.25,-0.40625,0.375,0.087891,-0.082031,-0.154297
842763.0,9.289062,-2.851562,-0.75,-0.285156,-0.335938,0.164062,0.109375,-0.083984,-0.175781
842781.0,9.292969,-2.738281,-0.714844,-0.292969,-0.277344,0.207031,0.126953,-0.105469,-0.183594
842795.0,9.289062,-2.660156,-0.675781,-0.300781,-0.148438,0.207031,0.179688,-0.119141,-0.1875
842811.0,9.367188,-2.507812,-0.789062,-0.300781,-0.125,0.179688,0.28125,-0.154297,-0.199219
842834.0,9.371094,-2.507812,-0.597656,-0.242188,-0.101562,0.355469,0.240234,-0.171875,-0.234375
842851.0,9.292969,-2.699219,-0.40625,-0.242188,-0.269531,0.410156,0.083984,-0.177734,-0.269531
842874.0,9.132812,-2.816406,0.015625,-0.480469,-0.503906,1.03125,-0.058594,-0.199219,-0.298828
842891.0,8.988281,-2.816406,-0.023438,-0.5625,-0.570312,1.015625,-0.101562,-0.253906,-0.320312
842914.0,9.136719,-2.546875,-0.140625,-0.496094,-0.359375,0.976562,-0.175781,-0.316406,-0.359375
842931.0,9.25,-3.007812,-0.175781,-0.457031,-0.667969,1.046875,-0.214844,-0.388672,-0.408203
842945.0,9.210938,-3.121094,-0.175781,-0.542969,-1.128906,1.171875,-0.181641,-0.427734,-0.433594
842961.0,8.945312,-3.273438,0.128906,-0.695312,-1.28125,1.324219,-0.083984,-0.560547,-0.480469
842985.0,9.132812,-2.96875,0.089844,-0.511719,-1.078125,1.527344,-0.013672,-0.660156,-0.552734
843000.0,9.027344,-3.121094,-0.253906,-0.464844,-1.253906,1.332031,-0.037109,-0.751953,-0.609375
843024.0,8.867188,-2.394531,0.128906,-0.769531,-0.738281,1.847656,-0.080078,-0.851562,-0.6875
843040.0,9.210938,-1.703125,0.089844,-0.648438,-0.507812,2.019531,-0.164062,-0.978516,-0.724609
843064.0,9.449219,-0.9375,-0.0625,-0.15625,0.429688,2.03125,-0.412109,-1.080078,-0.734375
843081.0,9.714844,-0.285156,-0.484375,0.011719,0.65625,1.878906,-0.591797,-1.189453,-0.740234
843094.0,9.832031,0.058594,-0.523438,0.546875,1.441406,1.648438,-0.724609,-1.232422,-0.722656
843120.0,10.746094,0.824219,-1.785156,1.023438,1.625,1.207031,-1.144531,-1.279297,-0.607422
843140.0,11.441406,-0.324219,-1.824219,1.882812,1.484375,0.929688,-1.488281,-1.234375,-0.566406
843160.0,11.667969,-1.398438,-2.476562,2.269531,-0.285156,1.171875,-1.464844,-1.224609,-0.619141
843181.0,11.242188,-2.164062,-2.398438,2.261719,-1.644531,1.023438,-1.287109,-1.253906,-0.697266
843200.0,10.703125,-2.507812,-2.324219,1.8125,-2.121094,1.296875,-0.853516,-1.404297,-0.697266
843230.0,10.253906,-2.507812,-3.203125,1.714844,-2.464844,1.546875,-0.117188,-1.550781,-0.726562
843254.0,9.828125,-2.355469,-4.851562,0.976562,-2.667969,-0.40625,0.244141,-1.585938,-0.765625
843270.0,9.210938,-2.050781,-6.0,0.777344,-2.675781,-0.953125,0.533203,-1.5625,-0.695312
843293.0,8.605469,-0.632812,-7.300781,0.039062,-1.078125,-2.332031,0.542969,-1.439453,-0.601562
843310.0,7.757812,0.210938,-7.53125,-0.273438,-0.640625,-2.132812,0.300781,-1.300781,-0.548828
843325.0,7.375,0.519531,-7.453125,-0.984375,0.230469,-1.804688,0.138672,-1.214844,-0.525391
843350.0,7.21875,-0.09375,-4.121094,-0.960938,0.53125,-1.867188,-0.509766,-0.705078,-0.683594
843365.0,7.03125,-2.433594,-4.046875,-1.433594,-5.136719,1.011719,-0.212891,-0.550781,-0.710938
843380.0,5.882812,-5.765625,-5.695312,-1.898438,-6.339844,0.476562,2.050781,-0.550781,-0.648438
843403.0,6.191406,-1.167969,-5.082031,-1.828125,-1.667969,0.722656,3.236328,-0.585938,-0.570312
843443.0,7.5625,4.617188,-4.007812,-0.425781,4.953125,1.84375,3.660156,0.119141,-0.212891
843462.0,7.414062,4.617188,-3.894531,-0.617188,5.085938,1.894531,1.142578,1.166016,-0.091797
843484.0,7.679688,0.171875,-5.003906,-0.566406,0.789062,0.449219,0.363281,1.753906,-0.011719
843501.0,7.640625,-1.511719,-5.539062,-0.632812,-0.328125,0.046875,0.847656,2.095703,0.011719
843515.0,7.527344,-1.894531,-5.769531,-1.1875,-1.277344,-0.925781,1.320312,2.167969,0.0
843530.0,7.492188,-1.742188,-5.808594,-1.363281,-1.113281,-1.089844,2.210938,2.173828,-0.054688
843553.0,8.40625,-1.054688,-5.5,-0.550781,0.046875,-1.429688,2.65625,2.224609,-0.212891
843594.0,9.941406,-0.667969,-6.152344,0.644531,0.667969,-3.058594,2.466797,2.257812,-0.529297
843624.0,10.402344,0.59375,-5.886719,0.894531,1.96875,-3.519531,2.126953,2.216797,-0.494141
843650.0,9.941406,-0.171875,-4.851562,0.761719,1.855469,-3.351562,0.839844,2.123047,-0.263672
843673.0,9.210938,-1.207031,-3.585938,-0.503906,0.121094,-2.304688,0.447266,1.962891,-0.267578
843690.0,8.792969,-1.972656,-4.773438,-0.671875,-0.277344,-2.214844,0.585938,1.507812,-0.222656
843706.0,7.988281,-3.121094,-6.460938,-2.390625,-1.917969,-5.984375,0.919922,0.828125,-0.056641
843730.0,9.09375,1.207031,-6.304688,-1.25,2.488281,-3.6875,0.773438,-0.328125,-0.291016
843744.0,8.679688,0.289062,-6.765625,-1.59375,1.53125,-2.875,0.574219,-0.533203,-0.138672
843760.0,10.742188,1.511719,-0.675781,-0.550781,3.007812,-0.136719,0.251953,-0.378906,-0.175781
843783.0,10.285156,-1.128906,-1.136719,0.519531,0.066406,-0.222656,0.464844,0.041016,0.0
843800.0,9.976562,-1.015625,-1.710938,-0.128906,0.121094,-0.648438,0.226562,-0.007812,0.035156
843823.0,10.171875,-1.703125,-0.941406,0.40625,-0.484375,-0.042969,0.017578,0.134766,0.03125
843840.0,9.519531,-2.125,-1.785156,0.023438,-0.976562,-0.359375,0.175781,0.269531,0.041016
843853.0,9.558594,-1.933594,-1.902344,-0.054688,-0.363281,-1.292969,0.324219,0.255859,0.023438
843879.0,9.941406,-0.476562,-2.285156,0.175781,0.535156,-1.457031,0.310547,0.279297,0.052734
843894.0,9.792969,-0.441406,-2.054688,0.023438,0.847656,-1.210938,0.210938,0.337891,0.068359
843910.0,9.898438,-0.363281,-2.167969,0.023438,1.015625,-1.582031,0.013672,0.486328,0.074219
843933.0,10.28125,-0.25,-2.246094,0.511719,1.03125,-1.691406,-0.162109,0.630859,0.060547
843949.0,10.171875,-0.171875,-1.824219,0.550781,1.148438,-1.707031,-0.435547,0.791016,0.076172
843973.0,9.941406,-0.058594,-1.210938,0.160156,1.238281,-0.929688,-0.769531,0.949219,0.132812
843990.0,9.671875,-0.863281,-0.867188,0.046875,0.980469,-0.894531,-1.03125,1.068359,0.220703
844013.0,9.40625,-2.46875,-0.367188,-0.367188,-1.101562,-0.421875,-1.025391,1.083984,0.212891
844029.0,8.867188,-3.199219,0.015625,-0.667969,-1.507812,-0.433594,-0.568359,0.943359,0.134766
844049.0,8.0625,-3.007812,1.433594,-1.355469,-1.785156,0.796875,0.046875,0.703125,0.074219
844069.0,7.90625,-1.933594,2.351562,-1.882812,-1.125,1.429688,0.341797,0.476562,0.076172
844084.0,8.179688,-1.320312,2.582031,-1.339844,0.769531,2.132812,0.230469,0.417969,0.085938
844099.0,8.789062,-0.132812,2.621094,-0.996094,1.320312,2.019531,-0.429688,0.382812,0.109375
844122.0,8.988281,-1.703125,2.542969,-0.75,-0.21875,1.902344,-0.734375,0.355469,0.109375
844153.0,10.480469,-3.464844,1.625,0.761719,-1.949219,0.960938,-0.333984,0.123047,0.058594
844194.0,9.867188,-1.246094,1.46875,0.148438,0.179688,0.761719,0.175781,-0.052734,0.041016
844219.0,9.410156,-1.703125,1.394531,-0.234375,-0.050781,0.652344,0.0625,-0.089844,0.029297
844239.0,9.410156,-2.125,1.164062,-0.3125,-0.425781,0.707031,-0.013672,-0.097656,0.027344
844259.0,9.410156,-2.125,1.203125,-0.304688,-0.578125,0.578125,0.083984,-0.138672,0.050781
844273.0,9.367188,-2.050781,1.011719,-0.382812,-0.417969,0.21875,0.158203,-0.158203,0.056641
844289.0,9.292969,-1.628906,0.820312,-0.417969,-0.257812,0.234375,0.318359,-0.234375,0.046875
844313.0,9.597656,-1.511719,0.855469,-0.113281,0.058594,0.324219,0.367188,-0.265625,0.019531
844330.0,9.792969,-1.703125,0.664062,-0.074219,-0.058594,0.273438,0.544922,-0.304688,0.015625
844351.0,10.171875,-1.128906,0.511719,0.453125,0.433594,0.058594,0.582031,-0.296875,0.023438
844393.0,9.789062,-1.511719,0.398438,0.078125,0.066406,0.015625,-0.050781,-0.146484,0.046875
844410.0,9.515625,-1.820312,0.472656,-0.113281,-0.117188,0.070312,-0.072266,-0.142578,0.039062
844430.0,9.515625,-1.972656,0.511719,-0.226562,-0.378906,0.128906,0.035156,-0.183594,0.027344
844449.0,9.675781,-1.972656,0.550781,-0.191406,-0.378906,0.191406,0.166016,-0.201172,0.011719
844469.0,9.753906,-1.628906,0.320312,-0.035156,-0.140625,0.125,0.199219,-0.199219,0.011719
844490.0,9.753906,-1.320312,0.246094,0.039062,-0.027344,0.0625,0.082031,-0.167969,0.013672
844503.0,9.710938,-1.28125,0.246094,0.078125,0.320312,-0.003906,0.009766,-0.154297,0.021484
844519.0,9.789062,-1.550781,0.167969,0.117188,0.25,-0.027344,-0.132812,-0.111328,0.035156
844543.0,9.554688,-2.394531,0.015625,-0.144531,-0.777344,-0.140625,-0.085938,-0.099609,0.041016
844559.0,9.484375,-2.316406,-0.0625,-0.21875,-0.84375,-0.210938,0.148438,-0.115234,0.035156
844574.0,9.554688,-2.085938,-0.101562,0.007812,-0.148438,-0.226562,0.205078,-0.115234,0.027344
844599.0,9.710938,-1.28125,-0.023438,0.046875,0.320312,-0.09375,0.039062,-0.054688,0.033203
844614.0,9.675781,-1.398438,-0.023438,-0.019531,0.089844,-0.125,-0.027344,-0.03125,0.035156
844653.0,9.632812,-1.820312,-0.0625,-0.058594,-0.164062,-0.164062,-0.013672,0.015625,0.037109
844670.0,9.714844,-1.742188,0.050781,0.015625,-0.078125,-0.164062,-0.066406,0.025391,0.039062
844691.0,9.59375,-1.550781,0.167969,-0.097656,0.121094,0.066406,-0.078125,0.037109,0.046875
844732.0,9.554688,-1.78125,0.550781,-0.128906,-0.085938,0.449219,-0.083984,-0.007812,0.025391
844750.0,9.40625,-1.972656,0.664062,-0.273438,-0.199219,0.5625,-0.011719,-0.054688,0.023438
844764.0,9.488281,-2.164062,0.78125,-0.042969,-0.46875,0.648438,0.033203,-0.072266,0.023438
844789.0,9.828125,-1.972656,0.550781,0.070312,-0.191406,0.777344,0.001953,-0.064453,0.015625
844803.0,9.710938,-1.820312,0.359375,-0.121094,0.0,0.25,-0.035156,-0.064453,0.017578
844818.0,9.671875,-1.589844,0.167969,-0.082031,0.074219,0.113281,-0.117188,-0.076172,0.017578
844843.0,9.597656,-1.472656,0.089844,-0.082031,0.238281,0.058594,-0.105469,-0.078125,0.009766
844859.0,9.710938,-1.472656,0.28125,-0.003906,0.238281,0.144531,-0.042969,-0.089844,-0.005859
844882.0,9.558594,-1.933594,0.167969,-0.121094,-0.222656,0.175781,-0.019531,-0.087891,-0.007812
844914.0,9.371094,-1.972656,0.207031,-0.3125,-0.261719,0.246094,0.080078,-0.142578,0.001953
844929.0,9.558594,-1.933594,0.246094,-0.234375,-0.222656,0.261719,0.025391,-0.154297,-0.007812
844954.0,9.671875,-1.972656,0.320312,-0.003906,-0.261719,0.40625,0.013672,-0.164062,-0.013672
844993.0,9.59375,-1.589844,-0.101562,-0.074219,0.113281,0.046875,0.025391,-0.150391,-0.025391
845008.0,9.632812,-1.628906,-0.214844,-0.035156,0.113281,-0.019531,-0.035156,-0.136719,-0.023438
845033.0,9.710938,-1.628906,-0.214844,0.039062,0.066406,-0.011719,-0.039062,-0.144531,-0.021484
845049.0,9.675781,-1.628906,-0.214844,-0.035156,0.03125,-0.035156,-0.021484,-0.136719,-0.029297
845072.0,9.75,-1.550781,-0.175781,0.078125,0.136719,0.082031,-0.044922,-0.119141,-0.037109
845088.0,9.675781,-1.628906,-0.101562,0.003906,0.136719,0.089844,-0.142578,-0.105469,-0.037109
845112.0,9.558594,-1.855469,-0.0625,-0.113281,-0.183594,0.242188,-0.179688,-0.103516,-0.035156
845129.0,9.488281,-1.933594,0.015625,-0.113281,-0.222656,0.289062,-0.148438,-0.105469,-0.037109
845143.0,9.445312,-2.011719,-0.023438,-0.1875,-0.355469,0.273438,-0.101562,-0.123047,-0.035156
845159.0,9.597656,-1.855469,-0.175781,-0.121094,-0.285156,0.25,0.009766,-0.158203,-0.046875
845181.0,9.632812,-1.550781,-0.140625,-0.042969,0.089844,0.257812,0.029297,-0.166016,-0.054688
845198.0,9.636719,-1.550781,-0.292969,-0.003906,0.121094,0.199219,-0.007812,-0.167969,-0.044922
845221.0,9.554688,-1.664062,-0.332031,-0.113281,-0.039062,0.121094,-0.017578,-0.169922,-0.046875
845238.0,9.558594,-1.589844,-0.214844,-0.105469,0.027344,0.175781,-0.060547,-0.175781,-0.042969
845262.0,9.554688,-1.78125,-0.292969,-0.113281,-0.171875,0.238281,-0.011719,-0.195312,-0.037109
845279.0,9.671875,-1.820312,-0.40625,-0.066406,-0.21875,0.179688,0.021484,-0.197266,-0.044922
845293.0,9.636719,-1.820312,-0.367188,-0.066406,-0.148438,0.253906,0.044922,-0.208984,-0.052734
845318.0,9.515625,-1.589844,-0.367188,-0.144531,-0.078125,0.21875,0.027344,-0.220703,-0.058594
845333.0,9.59375,-1.550781,-0.40625,-0.066406,-0.011719,0.210938,-0.003906,-0.220703,-0.058594
845370.0,9.597656,-1.511719,-0.523438,-0.066406,0.042969,0.21875,-0.074219,-0.212891,-0.044922
845410.0,9.558594,-1.472656,-0.597656,-0.097656,0.066406,0.238281,-0.072266,-0.230469,-0.042969
845451.0,9.484375,-1.820312,-0.636719,-0.15625,-0.304688,0.292969,-0.099609,-0.263672,-0.050781
845468.0,9.558594,-1.742188,-0.828125,-0.15625,-0.273438,0.277344,-0.056641,-0.273438,-0.056641
845492.0,9.710938,-1.359375,-1.058594,0.070312,0.125,-0.027344,-0.050781,-0.269531,-0.066406
845509.0,9.671875,-1.28125,-1.136719,0.042969,0.195312,0.003906,-0.132812,-0.25,-0.068359
845523.0,9.632812,-1.398438,-1.210938,-0.035156,-0.003906,-0.101562,-0.144531,-0.242188,-0.070312
845539.0,9.484375,-1.472656,-1.171875,-0.074219,-0.050781,-0.078125,-0.125,-0.224609,-0.0625
845561.0,9.753906,-1.4375,-1.210938,0.125,0.0,-0.007812,-0.117188,-0.228516,-0.064453
845578.0,9.671875,-1.359375,-1.171875,0.085938,-0.007812,0.015625,-0.09375,-0.236328,-0.058594
845602.0,9.636719,-1.320312,-1.210938,0.019531,0.09375,0.085938,-0.103516,-0.234375,-0.054688
845619.0,9.671875,-1.398438,-1.554688,0.019531,0.046875,-0.082031,-0.060547,-0.216797,-0.050781
845633.0,9.710938,-1.359375,-1.710938,0.140625,0.039062,-0.457031,-0.044922,-0.199219,-0.052734
845648.0,9.714844,-1.359375,-1.824219,0.101562,0.03125,-0.441406,-0.050781,-0.166016,-0.052734
845673.0,9.636719,-1.4375,-1.710938,0.035156,-0.0625,-0.28125,-0.042969,-0.148438,-0.052734
845712.0,9.632812,-1.207031,-1.171875,0.042969,0.152344,0.304688,-0.017578,-0.115234,-0.052734
845728.0,9.636719,-1.246094,-1.289062,0.003906,0.144531,0.273438,-0.03125,-0.136719,-0.048828
845751.0,9.59375,-1.320312,-1.671875,0.011719,0.015625,-0.140625,-0.023438,-0.125,-0.042969
845768.0,9.671875,-1.359375,-2.015625,0.050781,0.007812,-0.285156,-0.025391,-0.089844,-0.048828
845791.0,9.792969,-1.320312,-2.207031,0.203125,-0.007812,-0.644531,-0.021484,-0.064453,-0.056641
845808.0,9.789062,-1.320312,-2.054688,0.203125,0.03125,-0.605469,-0.0625,0.015625,-0.058594
845832.0,9.484375,-1.207031,-1.554688,-0.101562,0.082031,0.007812,-0.074219,0.054688,-0.052734
845848.0,9.488281,-1.128906,-1.210938,-0.179688,0.074219,0.265625,-0.025391,0.021484,-0.037109
845871.0,9.515625,-1.128906,-0.90625,-0.074219,0.144531,0.648438,0.001953,-0.007812,-0.033203
845888.0,9.449219,-1.089844,-1.171875,-0.074219,0.144531,0.417969,0.042969,-0.048828,-0.021484
845907.0,9.636719,-1.089844,-1.058594,-0.109375,0.25,0.503906,-0.044922,-0.080078,-0.009766
845928.0,9.75,-1.359375,-1.289062,0.164062,0.097656,0.441406,-0.103516,-0.091797,-0.011719
845942.0,9.714844,-1.472656,-1.363281,0.011719,-0.332031,0.007812,-0.085938,-0.097656,-0.021484
845957.0,9.445312,-1.628906,-1.902344,-0.101562,-0.453125,-0.175781,-0.03125,-0.091797,-0.029297
845981.0,9.714844,-1.246094,-1.710938,0.125,-0.003906,-0.078125,-0.013672,-0.082031,-0.037109
845997.0,9.671875,-1.207031,-1.632812,0.097656,0.035156,-0.023438,-0.035156,-0.056641,-0.048828
846021.0,9.554688,-1.320312,-1.863281,-0.027344,-0.101562,-0.207031,-0.021484,-0.027344,-0.054688
846038.0,9.410156,-1.167969,-1.59375,-0.101562,-0.035156,-0.054688,-0.046875,-0.027344,-0.052734
846053.0,9.328125,-1.128906,-1.480469,-0.257812,0.035156,0.300781,-0.048828,-0.033203,-0.052734
846092.0,9.675781,-1.246094,-1.671875,0.097656,-0.058594,0.007812,0.041016,-0.070312,-0.041016
846107.0,9.597656,-1.167969,-2.09375,0.058594,-0.019531,-0.257812,0.103516,-0.0625,-0.046875
846131.0,9.675781,-0.898438,-2.128906,0.097656,0.28125,-0.433594,0.058594,-0.023438,-0.035156
846148.0,9.710938,-0.9375,-2.015625,0.132812,0.273438,-0.398438,-0.042969,0.019531,-0.035156
846171.0,9.597656,-1.246094,-1.902344,0.011719,-0.082031,-0.214844,-0.064453,0.0625,-0.029297
846188.0,9.519531,-1.398438,-1.9375,-0.027344,-0.203125,-0.296875,0.001953,0.074219,-0.025391
846220.0,9.710938,-1.128906,-2.015625,0.117188,0.019531,-0.367188,0.052734,0.074219,-0.029297
846241.0,9.632812,-1.089844,-1.671875,0.042969,0.058594,-0.039062,0.097656,0.109375,-0.03125
846258.0,9.519531,-1.207031,-1.441406,-0.042969,0.019531,0.136719,0.091797,0.105469,-0.033203
846280.0,9.488281,-1.320312,-1.289062,-0.117188,-0.179688,0.296875,0.109375,0.103516,-0.039062
846297.0,9.554688,-1.207031,-1.25,-0.082031,-0.097656,0.289062,0.087891,0.085938,-0.050781
846321.0,9.554688,-1.054688,-1.171875,-0.050781,0.078125,0.382812,0.039062,0.076172,-0.046875
846337.0,9.519531,-1.015625,-1.25,-0.050781,0.078125,0.328125,0.015625,0.0625,-0.041016
846361.0,9.554688,-0.976562,-1.210938,-0.058594,0.140625,0.3125,0.009766,0.039062,-0.035156
846377.0,9.554688,-1.015625,-1.136719,-0.019531,0.09375,0.34375,0.009766,0.015625,-0.033203
846400.0,9.632812,-0.976562,-1.171875,0.019531,0.125,0.34375,0.011719,0.0,-0.029297
846431.0,9.632812,-1.089844,-1.480469,0.019531,0.003906,0.042969,-0.048828,-0.017578,-0.015625
846447.0,9.675781,-1.054688,-1.59375,0.019531,0.039062,-0.070312,-0.058594,-0.011719,-0.005859
846469.0,9.597656,-1.128906,-1.710938,-0.019531,-0.042969,-0.179688,-0.060547,-0.011719,-0.005859
846511.0,9.710938,-1.089844,-1.480469,0.09375,-0.003906,0.050781,-0.015625,0.0,-0.009766
846527.0,9.597656,-0.976562,-1.363281,0.058594,0.03125,0.128906,-0.046875,0.005859,-0.007812
846550.0,9.519531,-1.128906,-1.441406,-0.097656,-0.050781,0.089844,-0.044922,-0.003906,-0.003906
846567.0,9.632812,-1.089844,-1.480469,-0.058594,-0.089844,0.050781,-0.001953,-0.011719,-0.009766
846590.0,9.597656,-1.015625,-1.441406,-0.019531,0.054688,0.097656,-0.013672,-0.015625,-0.011719
846608.0,9.632812,-1.128906,-1.441406,0.019531,-0.019531,0.097656,-0.015625,-0.019531,-0.009766
846622.0,9.632812,-1.128906,-1.480469,0.019531,-0.058594,0.097656,-0.007812,-0.021484,-0.007812
846637.0,9.554688,-1.054688,-1.441406,-0.019531,-0.019531,0.066406,-0.011719,-0.027344,-0.007812
846661.0,9.558594,-1.128906,-1.480469,-0.058594,-0.066406,0.074219,-0.005859,-0.03125,-0.009766
846677.0,9.484375,-1.207031,-1.480469,-0.132812,-0.105469,0.113281,0.029297,-0.041016,-0.011719
846701.0,9.714844,-1.015625,-1.554688,0.09375,0.046875,0.015625,0.076172,-0.046875,-0.017578
846717.0,9.636719,-0.898438,-1.554688,0.058594,0.164062,0.050781,0.017578,-0.035156,-0.011719
846740.0,9.59375,-1.089844,-1.671875,-0.011719,-0.027344,-0.09375,-0.003906,-0.027344,-0.015625
846780.0,9.59375,-1.054688,-1.59375,-0.011719,0.023438,-0.078125,0.001953,-0.019531,-0.017578
846797.0,9.554688,-1.054688,-1.480469,-0.011719,0.023438,-0.039062,0.0,-0.019531,-0.019531
846812.0,9.59375,-1.089844,-1.480469,-0.089844,-0.050781,0.042969,0.001953,-0.021484,-0.019531
846849.0,9.632812,-0.9375,-1.480469,0.035156,0.125,0.050781,0.072266,-0.042969,-0.023438
846891.0,9.671875,-1.128906,-1.59375,0.074219,-0.074219,-0.054688,0.023438,-0.041016,-0.025391
846907.0,9.636719,-1.054688,-1.554688,0.035156,-0.074219,-0.046875,0.033203,-0.042969,-0.027344
846930.0,9.554688,-0.9375,-1.59375,-0.042969,0.109375,-0.039062,0.019531,-0.035156,-0.023438
846947.0,9.597656,-0.898438,-1.554688,-0.003906,0.148438,0.007812,0.0,-0.037109,-0.015625
846962.0,9.597656,-0.9375,-1.59375,0.003906,0.0625,0.007812,0.0,-0.041016,-0.013672
846987.0,9.597656,-1.015625,-1.671875,0.003906,0.054688,-0.015625,0.017578,-0.041016,-0.009766
847001.0,9.636719,-1.015625,-1.671875,0.042969,0.015625,-0.125,0.021484,-0.039062,-0.011719
847017.0,9.636719,-0.863281,-1.746094,0.042969,0.09375,-0.160156,-0.009766,-0.023438,-0.007812
847039.0,9.597656,-0.9375,-1.746094,0.003906,0.078125,-0.144531,-0.035156,-0.015625,-0.001953
847050.0,9.558594,-0.976562,-1.671875,-0.035156,0.03125,-0.0625,-0.058594,0.0,0.0
847067.0,9.558594,-1.054688,-1.632812,-0.035156,-0.007812,-0.0625,-0.035156,-0.003906,0.001953
847112.0,9.597656,-0.976562,-1.710938,-0.003906,0.015625,-0.085938,-0.021484,-0.001953,0.001953
847152.0,9.59375,-1.015625,-1.785156,0.042969,-0.023438,-0.113281,-0.035156,0.019531,0.003906
847191.0,9.597656,-0.976562,-1.632812,-0.003906,0.015625,0.007812,-0.021484,0.027344,0.003906
847206.0,9.597656,-0.976562,-1.632812,0.035156,0.023438,0.007812,-0.025391,0.027344,0.005859
847229.0,9.558594,-0.976562,-1.554688,-0.042969,0.015625,0.078125,-0.035156,0.029297,0.005859
847269.0,9.597656,-1.054688,-1.554688,-0.003906,-0.054688,0.070312,-0.003906,0.013672,0.001953
847310.0,9.636719,-1.015625,-1.554688,0.035156,-0.015625,0.0625,-0.011719,0.003906,0.0
847327.0,9.597656,-1.089844,-1.59375,0.035156,-0.054688,0.023438,-0.007812,0.005859,-0.005859
847341.0,9.632812,-1.089844,-1.671875,0.035156,-0.089844,-0.101562,0.0,0.007812,-0.007812
847379.0,9.59375,-0.976562,-1.671875,-0.003906,0.03125,-0.0625,-0.005859,0.017578,-0.005859
847396.0,9.554688,-1.054688,-1.671875,-0.042969,-0.007812,-0.070312,0.009766,0.027344,-0.001953
847419.0,9.671875,-0.9375,-1.710938,0.074219,0.070312,-0.109375,0.017578,0.027344,-0.003906
847436.0,9.636719,-0.863281,-1.746094,0.035156,0.109375,-0.144531,0.005859,0.042969,-0.001953
847459.0,9.714844,-0.9375,-1.746094,0.101562,0.0625,-0.152344,-0.003906,0.048828,0.0
847476.0,9.671875,-1.015625,-1.824219,0.101562,0.015625,-0.152344,-0.005859,0.078125,0.001953
847499.0,9.558594,-1.015625,-1.710938,-0.058594,-0.023438,-0.125,0.011719,0.087891,0.003906
847516.0,9.636719,-0.976562,-1.632812,-0.019531,0.023438,-0.125,0.03125,0.095703,0.005859
847531.0,9.671875,-0.976562,-1.632812,0.058594,-0.023438,-0.0625,0.027344,0.101562,0.007812
847546.0,9.632812,-1.054688,-1.59375,0.050781,-0.054688,-0.0625,0.033203,0.115234,0.0
847568.0,9.636719,-0.976562,-1.519531,0.003906,0.023438,0.027344,0.027344,0.123047,0.003906
847608.0,9.59375,-1.128906,-1.441406,-0.042969,-0.121094,0.058594,0.046875,0.134766,0.003906
847648.0,9.597656,-1.167969,-1.363281,-0.042969,-0.144531,0.089844,0.107422,0.119141,-0.013672
847690.0,9.597656,-1.128906,-1.289062,-0.058594,-0.097656,0.101562,0.134766,0.115234,-0.029297
847720.0,9.59375,-1.089844,-1.171875,-0.050781,-0.050781,0.179688,0.169922,0.103516,-0.025391
847737.0,9.675781,-0.976562,-1.097656,-0.011719,0.023438,0.171875,0.1875,0.091797,-0.03125
847760.0,9.675781,-0.976562,-1.097656,0.019531,0.0625,0.207031,0.167969,0.091797,-0.03125
847776.0,9.59375,-1.015625,-1.058594,-0.058594,0.0625,0.152344,0.128906,0.082031,-0.033203
847799.0,9.632812,-1.128906,-1.097656,-0.027344,-0.089844,0.167969,0.134766,0.078125,-0.033203
847815.0,9.671875,-1.128906,-1.019531,0.011719,-0.128906,0.160156,0.154297,0.035156,-0.029297
847839.0,9.488281,-1.167969,-1.058594,-0.179688,-0.136719,0.183594,0.193359,-0.003906,-0.027344
847856.0,9.558594,-1.28125,-0.90625,-0.144531,-0.136719,0.375,0.230469,-0.039062,-0.048828
847871.0,9.636719,-1.320312,-0.867188,-0.066406,-0.328125,0.574219,0.240234,-0.052734,-0.056641
847895.0,9.449219,-1.320312,-0.714844,-0.257812,-0.289062,0.535156,0.289062,-0.121094,-0.070312
847916.0,9.597656,-1.128906,-0.558594,-0.105469,-0.183594,0.628906,0.292969,-0.183594,-0.076172
847936.0,9.488281,-0.976562,-0.75,-0.179688,-0.039062,0.699219,0.273438,-0.238281,-0.078125
847950.0,9.558594,-1.015625,-0.75,0.019531,0.03125,0.585938,0.265625,-0.265625,-0.080078
847966.0,9.515625,-1.015625,-0.941406,-0.019531,0.070312,0.609375,0.253906,-0.308594,-0.072266
847989.0,9.714844,-1.167969,-1.25,0.078125,-0.167969,0.1875,0.21875,-0.357422,-0.064453
848006.0,9.710938,-1.246094,-1.136719,0.078125,-0.214844,0.332031,0.193359,-0.384766,-0.041016
848023.0,9.292969,-1.628906,-1.710938,0.085938,-0.253906,0.363281,0.162109,-0.410156,-0.027344
848038.0,9.675781,-1.972656,-1.671875,0.066406,-0.972656,-0.054688,0.171875,-0.46875,-0.021484
848069.0,9.410156,-1.207031,-1.746094,-0.179688,-0.199219,-0.011719,0.669922,-0.400391,-0.041016
848086.0,9.558594,-1.28125,-2.246094,-0.132812,-0.152344,-0.289062,0.734375,-0.326172,-0.072266
848101.0,9.632812,-1.359375,-2.246094,-0.085938,-0.25,-0.546875,0.798828,-0.316406,-0.089844
848116.0,9.332031,-1.089844,-2.246094,-0.234375,-0.167969,-0.570312,0.882812,-0.294922,-0.128906
848138.0,9.632812,-0.324219,-1.863281,0.082031,0.722656,0.019531,0.908203,-0.277344,-0.140625
848156.0,9.902344,0.019531,-1.554688,0.203125,0.882812,0.21875,0.681641,-0.142578,-0.148438
848179.0,10.097656,0.632812,-1.785156,0.546875,1.679688,0.113281,0.457031,0.017578,-0.125
848196.0,10.054688,0.746094,-2.820312,0.539062,1.679688,-0.425781,0.087891,0.076172,-0.039062
848219.0,10.210938,-0.171875,-2.285156,0.65625,0.859375,-0.417969,-0.234375,0.123047,-0.017578
848236.0,9.210938,-1.4375,-2.515625,0.074219,-0.105469,-0.664062,-0.285156,0.191406,0.039062
848250.0,9.214844,-1.359375,-2.515625,-0.164062,-0.074219,-0.578125,-0.117188,0.150391,0.035156
848275.0,9.675781,-0.441406,-2.246094,0.132812,0.421875,-0.457031,-0.085938,0.197266,0.023438
848290.0,9.632812,-0.324219,-2.207031,0.058594,0.773438,-0.371094,-0.185547,0.238281,0.046875
848305.0,9.636719,-0.476562,-2.09375,0.050781,0.691406,-0.328125,-0.382812,0.292969,0.082031
848329.0,9.632812,-0.976562,-2.015625,0.035156,0.046875,-0.359375,-0.441406,0.308594,0.099609
848345.0,9.515625,-1.089844,-1.785156,-0.042969,-0.03125,-0.269531,-0.390625,0.314453,0.111328
848369.0,9.558594,-1.015625,-1.519531,-0.058594,0.023438,0.035156,-0.298828,0.314453,0.109375
848385.0,9.597656,-0.9375,-1.363281,-0.058594,0.0625,0.082031,-0.232422,0.283203,0.111328
848409.0,9.753906,-0.59375,-1.328125,0.125,0.476562,0.125,-0.255859,0.285156,0.128906
848425.0,9.753906,-0.363281,-1.328125,0.117188,0.601562,0.09375,-0.408203,0.308594,0.144531
848448.0,9.636719,-0.59375,-1.328125,-0.003906,0.492188,0.023438,-0.554688,0.326172,0.15625
848466.0,9.753906,-0.863281,-1.363281,0.035156,0.386719,-0.074219,-0.634766,0.355469,0.15625
848496.0,9.792969,-1.511719,-1.363281,0.0625,-0.203125,-0.085938,-0.601562,0.380859,0.138672
848518.0,9.636719,-1.320312,-1.363281,-0.019531,-0.1875,-0.207031,-0.554688,0.382812,0.140625
848535.0,9.671875,-1.246094,-1.363281,0.046875,-0.179688,-0.246094,-0.544922,0.402344,0.113281
848559.0,9.675781,-1.207031,-1.136719,0.003906,-0.050781,-0.121094,-0.580078,0.433594,0.097656
848576.0,9.597656,-1.207031,-0.90625,-0.074219,-0.050781,0.003906,-0.617188,0.439453,0.09375
848599.0,9.445312,-1.472656,-0.828125,-0.242188,-0.316406,0.054688,-0.558594,0.400391,0.097656
848615.0,9.410156,-1.550781,-0.636719,-0.28125,-0.386719,0.101562,-0.496094,0.363281,0.080078
848630.0,9.484375,-1.664062,-0.558594,-0.128906,-0.492188,0.152344,-0.410156,0.339844,0.078125
848645.0,9.671875,-1.320312,-0.367188,-0.058594,-0.378906,0.207031,-0.349609,0.306641,0.070312
848666.0,9.632812,-1.246094,-0.214844,-0.019531,-0.027344,0.417969,-0.421875,0.298828,0.060547
848685.0,9.710938,-1.320312,-0.253906,-0.019531,-0.09375,0.410156,-0.40625,0.283203,0.058594
848709.0,9.675781,-1.246094,-0.292969,-0.027344,-0.050781,0.308594,-0.382812,0.263672,0.058594
848725.0,9.632812,-1.128906,-0.214844,-0.027344,-0.003906,0.246094,-0.375,0.236328,0.054688
848749.0,9.554688,-1.246094,-0.367188,-0.144531,-0.035156,0.15625,-0.388672,0.21875,0.052734
848766.0,9.597656,-1.359375,-0.332031,-0.183594,-0.035156,0.101562,-0.400391,0.207031,0.050781
848788.0,9.59375,-1.703125,-0.367188,-0.105469,-0.476562,0.09375,-0.330078,0.191406,0.037109
848805.0,9.554688,-1.703125,-0.292969,-0.144531,-0.554688,0.113281,-0.1875,0.150391,0.035156
848835.0,9.636719,-1.4375,-0.175781,-0.066406,-0.238281,0.238281,-0.072266,0.103516,0.019531
848858.0,9.632812,-1.320312,-0.0625,-0.074219,-0.085938,0.3125,-0.054688,0.097656,0.015625
848874.0,9.519531,-1.320312,-0.0625,-0.113281,-0.085938,0.304688,-0.033203,0.058594,0.013672
848899.0,9.59375,-1.472656,0.015625,-0.105469,-0.230469,0.375,0.0,0.003906,0.015625
848915.0,9.558594,-1.703125,0.089844,-0.113281,-0.386719,0.410156,0.066406,-0.039062,0.005859
848938.0,9.519531,-1.511719,0.050781,-0.191406,-0.269531,0.417969,0.121094,-0.068359,0.0
848969.0,9.59375,-1.246094,0.015625,-0.105469,0.003906,0.414062,0.177734,-0.128906,-0.009766
848985.0,9.597656,-1.28125,-0.101562,-0.105469,-0.003906,0.390625,0.154297,-0.169922,-0.011719
849008.0,9.59375,-1.320312,-0.253906,-0.105469,-0.070312,0.199219,0.164062,-0.183594,-0.013672
849025.0,9.636719,-1.359375,-0.292969,-0.105469,-0.070312,0.175781,0.173828,-0.208984,-0.025391
849047.0,9.632812,-1.246094,-0.332031,-0.058594,-0.003906,0.191406,0.179688,-0.21875,-0.025391
849057.0,9.636719,-1.28125,-0.292969,-0.058594,-0.039062,0.253906,0.15625,-0.230469,-0.023438
849088.0,9.753906,-1.246094,-0.523438,0.0625,-0.003906,0.070312,0.160156,-0.244141,-0.025391
849105.0,9.710938,-1.089844,-0.597656,0.101562,0.027344,0.058594,0.132812,-0.234375,-0.025391
849128.0,9.714844,-1.089844,-0.789062,0.023438,0.136719,-0.109375,0.082031,-0.216797,-0.023438
849144.0,9.792969,-1.128906,-0.90625,0.0625,0.136719,-0.171875,0.070312,-0.201172,-0.021484
849168.0,9.710938,-1.207031,-0.980469,0.03125,0.019531,-0.230469,0.066406,-0.173828,-0.019531
849185.0,9.753906,-1.207031,-1.019531,0.070312,0.011719,-0.246094,0.074219,-0.158203,-0.019531
849199.0,9.753906,-1.246094,-1.058594,0.03125,0.011719,-0.261719,0.083984,-0.150391,-0.019531
849214.0,9.714844,-1.128906,-1.019531,0.03125,0.050781,-0.207031,0.074219,-0.128906,-0.019531
849239.0,9.710938,-1.167969,-0.980469,0.039062,0.050781,-0.144531,0.070312,-0.111328,-0.019531
849254.0,9.75,-1.207031,-0.980469,0.039062,0.050781,-0.128906,0.076172,-0.103516,-0.019531
849279.0,9.710938,-1.167969,-0.941406,0.039062,0.050781,-0.066406,0.085938,-0.101562,-0.017578
849295.0,9.675781,-1.207031,-0.941406,0.078125,0.011719,-0.023438,0.074219,-0.095703,-0.017578
849309.0,9.671875,-1.207031,-0.90625,0.039062,-0.070312,-0.042969,0.074219,-0.099609,-0.015625
849324.0,9.675781,-1.246094,-0.941406,0.003906,-0.070312,-0.035156,0.087891,-0.09375,-0.013672
849357.0,9.675781,-1.167969,-0.980469,0.011719,0.042969,-0.035156,0.109375,-0.101562,-0.011719
849375.0,9.671875,-1.128906,-1.019531,0.011719,0.074219,-0.035156,0.126953,-0.103516,-0.015625
849394.0,9.675781,-1.128906,-0.941406,-0.027344,0.074219,0.019531,0.113281,-0.105469,-0.013672
849414.0,9.714844,-1.167969,-0.90625,0.011719,0.035156,0.078125,0.115234,-0.103516,-0.013672
849435.0,9.632812,-1.128906,-0.941406,0.019531,0.035156,0.09375,0.123047,-0.111328,-0.009766
849454.0,9.59375,-1.128906,-0.941406,-0.027344,0.074219,0.066406,0.111328,-0.115234,-0.009766
849475.0,9.671875,-1.128906,-1.019531,-0.019531,0.074219,0.089844,0.107422,-0.121094,-0.003906
849508.0,9.675781,-1.207031,-1.097656,-0.019531,-0.027344,-0.113281,0.087891,-0.115234,-0.009766
849524.0,9.675781,-1.246094,-1.171875,-0.011719,-0.027344,-0.136719,0.083984,-0.105469,-0.001953
849548.0,9.597656,-1.28125,-1.136719,-0.089844,-0.101562,-0.105469,0.080078,-0.101562,-0.005859
849565.0,9.59375,-1.320312,-1.136719,-0.128906,-0.101562,-0.117188,0.087891,-0.101562,-0.013672
849579.0,9.636719,-1.359375,-1.136719,-0.042969,-0.171875,-0.132812,0.109375,-0.099609,-0.013672
849594.0,9.671875,-1.246094,-1.210938,-0.003906,-0.132812,-0.125,0.148438,-0.101562,-0.017578
849617.0,9.671875,-1.128906,-1.289062,0.003906,0.066406,-0.164062,0.144531,-0.101562,-0.015625
849634.0,9.753906,-1.128906,-1.289062,0.039062,0.105469,-0.148438,0.115234,-0.085938,-0.019531
849657.0,9.671875,-1.128906,-1.289062,0.011719,0.066406,-0.117188,0.09375,-0.076172,-0.021484
849674.0,9.636719,-1.128906,-1.289062,0.011719,0.066406,-0.078125,0.041016,-0.054688,-0.021484
849698.0,9.59375,-1.167969,-1.171875,-0.066406,0.019531,0.03125,0.035156,-0.052734,-0.017578
849714.0,9.59375,-1.207031,-1.136719,-0.066406,-0.019531,0.074219,0.048828,-0.0625,-0.017578
849739.0,9.632812,-1.246094,-1.136719,-0.027344,-0.066406,0.089844,0.091797,-0.076172,-0.021484
849768.0,9.675781,-1.015625,-1.328125,0.019531,0.164062,-0.078125,0.087891,-0.078125,-0.011719
849784.0,9.675781,-1.015625,-1.363281,-0.011719,0.164062,-0.078125,0.035156,-0.064453,-0.013672
849808.0,9.671875,-1.089844,-1.363281,0.027344,0.082031,-0.089844,0.007812,-0.046875,-0.011719
849825.0,9.636719,-1.089844,-1.328125,0.027344,0.082031,-0.121094,-0.001953,-0.037109,-0.011719
849848.0,9.636719,-1.207031,-1.25,-0.011719,-0.050781,0.046875,-0.005859,-0.03125,-0.005859
849864.0,9.554688,-1.246094,-1.25,-0.050781,-0.089844,0.015625,0.009766,-0.037109,-0.011719
849887.0,9.828125,-1.015625,-1.363281,0.179688,0.132812,-0.050781,0.021484,-0.029297,-0.005859
849904.0,9.714844,-0.9375,-1.363281,0.140625,0.210938,-0.089844,-0.050781,-0.005859,0.003906
849919.0,9.558594,-1.015625,-1.402344,-0.089844,0.050781,-0.082031,-0.078125,0.0,0.005859
849935.0,9.636719,-1.207031,-1.363281,-0.089844,-0.066406,-0.082031,-0.050781,0.0,0.003906
849957.0,9.636719,-1.128906,-1.210938,-0.003906,0.003906,0.117188,-0.039062,0.0,0.005859
849974.0,9.597656,-1.167969,-1.210938,-0.003906,0.003906,0.117188,-0.060547,-0.007812,0.007812
849997.0,9.554688,-1.207031,-1.25,-0.082031,-0.074219,0.085938,-0.060547,-0.007812,0.007812
850014.0,9.636719,-1.128906,-1.328125,-0.003906,-0.035156,0.046875,-0.042969,-0.019531,0.011719
850037.0,9.597656,-1.128906,-1.25,-0.035156,0.011719,0.085938,-0.048828,-0.019531,0.009766
850054.0,9.554688,-1.207031,-1.289062,-0.113281,-0.027344,0.015625,-0.039062,-0.041016,0.017578
850077.0,9.636719,-1.128906,-1.328125,0.003906,0.011719,0.015625,-0.023438,-0.041016,0.013672
850108.0,9.714844,-1.089844,-1.402344,0.050781,0.011719,-0.128906,-0.039062,-0.029297,0.013672
850124.0,9.59375,-1.207031,-1.441406,-0.027344,0.011719,-0.082031,-0.0625,-0.017578,0.013672
850147.0,9.632812,-1.359375,-1.519531,0.011719,-0.210938,-0.152344,-0.035156,-0.015625,0.007812
850164.0,9.636719,-1.246094,-1.402344,0.011719,-0.125,-0.113281,-0.005859,-0.011719,0.005859
850187.0,9.59375,-1.207031,-1.441406,-0.019531,-0.050781,-0.066406,-0.019531,-0.003906,-0.001953
850204.0,9.597656,-1.246094,-1.363281,-0.019531,-0.042969,-0.019531,-0.013672,-0.007812,-0.007812
850233.0,9.636719,-1.207031,-1.25,0.019531,-0.074219,0.140625,0.011719,-0.021484,-0.013672
850267.0,9.632812,-1.246094,-1.171875,0.019531,-0.074219,0.21875,0.021484,-0.041016,-0.019531
850284.0,9.597656,-1.246094,-1.210938,-0.019531,-0.074219,0.179688,0.039062,-0.058594,-0.019531
850298.0,9.554688,-1.246094,-1.210938,-0.019531,-0.035156,0.253906,0.046875,-0.070312,-0.021484
850314.0,9.519531,-1.207031,-1.097656,-0.058594,0.003906,0.261719,0.048828,-0.09375,-0.025391
850337.0,9.675781,-1.246094,-1.171875,0.066406,-0.074219,0.226562,0.083984,-0.125,-0.03125
850354.0,9.632812,-1.246094,-1.171875,0.027344,-0.109375,0.261719,0.117188,-0.152344,-0.03125
850377.0,9.636719,-1.28125,-0.980469,0.035156,-0.101562,0.433594,0.119141,-0.183594,-0.033203
850394.0,9.59375,-1.398438,-0.789062,0.035156,-0.148438,0.601562,0.169922,-0.246094,-0.035156
850416.0,9.632812,-1.359375,-0.558594,0.050781,-0.179688,0.917969,0.21875,-0.285156,-0.037109
850433.0,9.675781,-1.167969,-0.597656,0.058594,-0.066406,0.949219,0.300781,-0.414062,-0.021484
850446.0,9.753906,-1.089844,-0.675781,0.179688,0.097656,0.894531,0.306641,-0.457031,-0.007812
850473.0,10.132812,-0.707031,-0.980469,0.464844,0.488281,0.828125,0.105469,-0.519531,0.060547
850488.0,10.136719,-0.863281,-0.828125,0.554688,0.089844,0.808594,-0.007812,-0.517578,0.089844
850503.0,10.136719,-1.628906,-0.90625,0.570312,-0.210938,0.738281,-0.177734,-0.533203,0.203125
850527.0,10.59375,-1.320312,-0.941406,1.101562,-0.046875,1.011719,-0.386719,-0.515625,0.302734
850543.0,10.4375,-1.398438,-0.675781,1.039062,-0.023438,1.25,-0.710938,-0.521484,0.335938
850567.0,10.285156,-2.050781,-0.789062,0.847656,-0.707031,1.382812,-0.837891,-0.541016,0.34375
850583.0,10.25,-2.546875,-1.441406,0.871094,-0.996094,1.214844,-1.041016,-0.488281,0.396484
850607.0,10.210938,-2.507812,-2.128906,0.835938,-1.09375,0.269531,-0.898438,-0.371094,0.464844
850623.0,10.019531,-1.703125,-1.863281,0.773438,-0.621094,0.460938,-0.880859,-0.076172,0.570312
850647.0,9.632812,-1.933594,-1.59375,0.292969,-0.394531,0.867188,-0.949219,0.115234,0.634766
850664.0,9.558594,-2.203125,-1.402344,0.253906,-0.5,0.917969,-0.921875,0.701172,0.748047
850678.0,9.367188,-2.316406,-1.441406,-0.214844,-0.683594,0.808594,-0.818359,0.880859,0.761719
850695.0,8.949219,-2.277344,-1.632812,-0.414062,-0.535156,0.609375,-0.601562,1.214844,0.816406
850723.0,9.328125,-2.242188,-1.863281,-0.183594,-0.113281,-0.023438,-0.625,1.708984,0.912109
850743.0,9.292969,-2.316406,-1.785156,-0.078125,-0.226562,-0.105469,-0.552734,1.892578,1.0
850763.0,8.445312,-2.242188,-2.398438,-0.789062,-0.011719,-1.203125,-0.449219,1.917969,1.042969
850783.0,8.753906,-1.511719,-1.519531,-1.019531,0.441406,-1.15625,-0.533203,1.826172,0.972656
850813.0,8.984375,-2.011719,-1.441406,-0.484375,0.882812,-0.902344,-1.009766,1.738281,0.771484
850836.0,9.367188,-2.625,-1.632812,0.023438,0.28125,-1.5625,-1.005859,1.681641,0.726562
850853.0,9.097656,-2.738281,-1.441406,0.085938,0.269531,-1.234375,-0.839844,1.541016,0.578125
850873.0,8.140625,-2.277344,-1.289062,-0.984375,0.347656,-1.816406,-0.484375,1.318359,0.519531
850893.0,8.5625,-0.9375,-1.785156,-0.871094,1.589844,-1.871094,-0.332031,1.035156,0.419922
850923.0,8.523438,0.480469,-1.019531,-0.554688,3.207031,-2.113281,-0.892578,0.572266,0.175781
850947.0,7.949219,-1.054688,-1.441406,-1.207031,2.289062,-2.207031,-0.640625,0.087891,-0.064453
850963.0,9.714844,-2.433594,1.433594,-0.667969,1.554688,-0.957031,-0.375,-0.083984,-0.25
850993.0,10.636719,-9.210938,0.398438,1.644531,-6.230469,0.46875,1.3125,-0.402344,-0.128906
851026.0,10.175781,-0.976562,0.742188,0.953125,2.203125,0.023438,1.744141,-0.564453,-0.128906
851043.0,9.515625,0.554688,0.894531,0.601562,3.296875,0.09375,0.726562,-0.410156,-0.001953
851057.0,9.449219,0.210938,0.664062,0.292969,2.480469,-0.296875,0.345703,-0.398438,-0.001953
851083.0,9.980469,-3.160156,0.015625,0.707031,0.585938,-0.496094,0.515625,-0.507812,-0.072266
851102.0,9.59375,-2.699219,0.050781,0.433594,0.101562,-0.585938,0.605469,-0.5,-0.074219
851123.0,9.558594,-2.242188,0.167969,0.347656,0.402344,-0.488281,0.09375,-0.388672,-0.023438
851143.0,9.292969,-2.660156,0.28125,0.109375,0.625,-0.191406,-0.378906,-0.255859,0.007812
851163.0,9.253906,-3.199219,0.167969,0.035156,0.425781,-0.117188,-0.40625,-0.253906,0.001953
851183.0,9.292969,-3.8125,-0.0625,0.109375,-0.5625,-0.160156,0.029297,-0.332031,-0.042969
851208.0,9.328125,-2.625,-0.023438,0.054688,0.445312,-0.226562,0.441406,-0.435547,-0.0625
851247.0,9.292969,-2.277344,-0.101562,0.019531,0.785156,-0.1875,-0.050781,-0.306641,0.037109
851262.0,9.214844,-3.199219,-0.367188,-0.019531,0.285156,-0.195312,0.070312,-0.316406,0.050781
851286.0,9.367188,-2.46875,-0.484375,0.09375,0.609375,-0.460938,0.404297,-0.359375,0.042969
851302.0,9.753906,-1.703125,-0.332031,0.292969,1.105469,-0.246094,0.15625,-0.28125,0.076172
851326.0,9.632812,-2.125,-0.867188,0.378906,0.976562,-0.75,-0.263672,-0.162109,0.140625
851343.0,9.714844,-2.851562,-0.941406,0.417969,0.5625,-0.839844,-0.4375,-0.083984,0.136719
851366.0,9.253906,-3.847656,-0.941406,0.011719,-0.707031,-0.738281,-0.333984,-0.064453,0.097656
851383.0,9.253906,-3.734375,-0.828125,0.011719,-0.625,-0.761719,-0.224609,-0.0625,0.050781
851402.0,9.328125,-3.582031,-0.828125,0.085938,-0.386719,-0.546875,-0.285156,-0.011719,0.023438
851423.0,9.328125,-3.65625,-0.941406,0.09375,-0.539062,-0.707031,-0.390625,0.054688,-0.011719
851437.0,9.25,-3.582031,-0.828125,0.011719,-0.433594,-0.425781,-0.441406,0.070312,-0.033203
851452.0,9.25,-3.582031,-0.40625,0.050781,-0.515625,-0.226562,-0.451172,0.078125,-0.080078
851476.0,8.988281,-3.503906,-0.101562,-0.265625,-0.394531,0.21875,-0.349609,0.023438,-0.105469
851492.0,9.09375,-3.121094,0.128906,-0.152344,-0.257812,0.386719,-0.339844,-0.019531,-0.115234
851516.0,9.171875,-2.929688,-0.175781,-0.089844,0.132812,0.191406,-0.361328,-0.052734,-0.119141
851534.0,9.292969,-2.816406,-0.140625,0.027344,0.230469,0.25,-0.410156,-0.066406,-0.126953
851562.0,9.09375,-3.082031,-0.675781,-0.191406,-0.113281,-0.144531,-0.363281,-0.080078,-0.134766
851588.0,9.292969,-3.238281,-1.097656,-0.003906,-0.277344,-0.589844,-0.253906,-0.091797,-0.142578
851626.0,9.554688,-2.816406,-1.363281,0.246094,0.082031,-0.808594,-0.283203,0.013672,-0.160156
851643.0,9.554688,-2.738281,-1.441406,0.199219,0.066406,-0.839844,-0.294922,0.068359,-0.166016
851666.0,9.519531,-2.585938,-1.019531,0.183594,0.242188,-0.441406,-0.400391,0.125,-0.166016
851682.0,9.328125,-2.625,-0.789062,0.140625,0.257812,-0.363281,-0.423828,0.15625,-0.167969
851705.0,9.371094,-2.738281,-0.636719,0.007812,0.011719,-0.066406,-0.365234,0.136719,-0.171875
851722.0,9.40625,-2.507812,-0.367188,0.046875,0.109375,0.046875,-0.357422,0.121094,-0.181641
851745.0,9.515625,-2.277344,-0.445312,0.136719,0.394531,0.132812,-0.447266,0.105469,-0.185547
851762.0,9.75,-2.050781,-0.484375,0.292969,0.484375,0.09375,-0.634766,0.121094,-0.197266
851792.0,9.632812,-2.46875,-0.175781,0.160156,0.152344,0.234375,-1.007812,0.148438,-0.222656
851816.0,9.253906,-2.851562,-0.253906,-0.167969,-0.359375,0.386719,-1.074219,0.154297,-0.257812
851832.0,9.289062,-2.546875,-0.101562,-0.136719,-0.046875,0.472656,-1.074219,0.101562,-0.265625
851855.0,9.367188,-2.777344,-0.023438,-0.085938,-0.417969,0.679688,-1.056641,0.066406,-0.269531
851874.0,9.253906,-2.96875,-0.101562,-0.207031,-0.640625,0.625,-0.789062,-0.087891,-0.306641
851896.0,8.871094,-2.433594,-0.0625,-0.605469,-0.207031,0.75,-0.660156,-0.210938,-0.314453
851912.0,8.789062,-2.546875,0.015625,-0.730469,-0.28125,0.902344,-0.59375,-0.314453,-0.328125
851927.0,8.988281,-2.625,-0.332031,-0.046875,-0.734375,0.214844,-0.486328,-0.347656,-0.339844
851942.0,9.75,-2.777344,-1.519531,0.183594,-0.882812,-0.121094,-0.210938,-0.353516,-0.349609
851966.0,9.636719,-1.4375,-2.246094,0.128906,0.539062,-1.160156,-0.173828,-0.330078,-0.34375
851982.0,9.75,-0.863281,-2.550781,0.167969,0.847656,-1.40625,-0.355469,-0.195312,-0.318359
852006.0,10.214844,-0.59375,-2.589844,0.695312,1.242188,-1.394531,-0.621094,-0.078125,-0.283203
852022.0,9.941406,-0.824219,-2.550781,0.570312,1.164062,-1.417969,-0.830078,0.060547,-0.238281
852046.0,9.828125,-1.4375,-2.324219,0.289062,0.265625,-1.089844,-0.837891,0.121094,-0.189453
852062.0,10.214844,-1.894531,-1.824219,0.511719,0.042969,-0.933594,-0.6875,0.164062,-0.191406
852085.0,9.753906,-1.472656,-1.210938,0.179688,0.121094,0.015625,-0.503906,0.126953,-0.189453
852102.0,9.753906,-0.285156,-1.019531,0.105469,0.515625,0.214844,-0.560547,0.074219,-0.142578
852125.0,9.867188,3.121094,-1.710938,0.289062,4.636719,-0.46875,-1.240234,0.076172,0.048828
852142.0,10.132812,4.769531,-2.550781,0.441406,5.65625,-0.949219,-3.027344,0.207031,0.367188
852172.0,10.253906,1.128906,-4.390625,0.945312,4.484375,-2.480469,-5.253906,0.5,0.685547
852196.0,8.792969,-2.507812,-4.851562,-0.761719,-1.039062,-3.414062,-4.835938,0.453125,0.898438
852214.0,8.445312,-2.660156,-4.582031,-1.097656,-1.175781,-3.121094,-4.554688,0.326172,0.912109
852241.0,8.527344,-1.894531,-4.160156,-0.890625,-0.226562,-2.882812,-4.054688,0.107422,0.675781
852262.0,8.371094,-2.164062,-3.894531,-1.0,-0.378906,-2.527344,-3.542969,-0.039062,0.664062
852274.0,8.410156,-2.316406,-3.816406,-1.128906,-0.664062,-2.144531,-3.283203,-0.101562,0.636719
852306.0,8.949219,-2.585938,-3.511719,-0.476562,-0.957031,-1.363281,-2.498047,-0.189453,0.394531
852331.0,8.714844,-2.316406,-3.089844,-0.574219,-0.917969,-1.03125,-1.740234,-0.126953,0.189453
852351.0,8.445312,-2.394531,-3.125,-0.988281,-1.042969,-0.847656,-1.369141,-0.005859,0.082031
852374.0,8.367188,-2.46875,-3.089844,-1.058594,-1.125,-0.878906,-1.042969,0.169922,-0.050781
852401.0,9.023438,-2.277344,-2.285156,-0.539062,-1.027344,-0.59375,-0.480469,0.560547,-0.222656
852425.0,9.898438,-2.777344,-0.941406,0.417969,-1.621094,1.089844,-0.083984,0.728516,-0.232422
852441.0,10.707031,-3.734375,-1.136719,1.582031,-1.757812,2.011719,0.597656,1.021484,-0.130859
852465.0,9.714844,-1.664062,-1.671875,0.15625,-0.507812,0.0,1.046875,0.746094,0.060547
852482.0,11.054688,0.132812,-1.328125,0.871094,0.703125,0.464844,0.521484,0.751953,0.105469
852505.0,9.636719,0.324219,-0.253906,0.035156,1.542969,1.105469,-0.419922,0.957031,0.148438
852522.0,9.832031,-0.898438,-0.597656,-0.019531,1.246094,1.011719,-1.289062,1.107422,0.158203
852536.0,10.214844,-1.972656,-0.789062,1.144531,-1.664062,0.464844,-1.306641,1.117188,0.152344
852551.0,11.058594,-3.121094,-0.675781,1.519531,-1.933594,0.484375,-0.724609,1.048828,0.101562
852576.0,9.515625,-2.125,-0.332031,-0.152344,-0.882812,0.410156,0.021484,0.794922,0.046875
852594.0,9.449219,-1.511719,-0.101562,-0.234375,-0.269531,0.570312,0.443359,0.572266,0.03125
852621.0,9.328125,0.289062,1.085938,-0.433594,1.429688,1.441406,0.134766,0.421875,0.113281
852642.0,9.449219,-0.363281,1.085938,-0.359375,1.5625,1.539062,-0.169922,0.402344,0.148438
852661.0,9.597656,-1.855469,0.511719,-0.128906,-0.246094,1.085938,-0.085938,0.314453,0.181641
852685.0,9.410156,-2.011719,0.207031,-0.28125,-0.660156,0.464844,0.056641,0.263672,0.179688
852701.0,9.328125,-1.664062,0.207031,-0.394531,-0.480469,0.441406,0.462891,0.083984,0.136719
852726.0,9.671875,-1.246094,0.167969,-0.003906,0.167969,0.363281,0.537109,0.015625,0.111328
852741.0,9.789062,-1.054688,0.167969,0.109375,0.292969,0.277344,0.416016,0.015625,0.113281
852765.0,9.710938,-1.089844,0.050781,0.03125,0.363281,0.214844,0.216797,0.035156,0.123047
852781.0,9.636719,-1.359375,-0.101562,-0.003906,0.261719,0.132812,0.105469,0.037109,0.117188
852805.0,9.484375,-1.4375,-0.0625,-0.179688,0.0625,0.078125,0.072266,0.019531,0.111328
852821.0,9.328125,-1.472656,0.015625,-0.257812,0.109375,0.117188,0.076172,-0.009766,0.103516
852844.0,9.792969,-1.628906,-0.140625,0.125,-0.082031,0.0,0.195312,-0.033203,0.105469
852861.0,9.898438,-1.398438,-0.253906,0.238281,0.003906,0.0,0.25,-0.019531,0.105469
852876.0,9.898438,-1.246094,-0.367188,0.132812,0.355469,-0.351562,0.230469,-0.001953,0.107422
852914.0,9.714844,-1.4375,-0.40625,0.0625,0.171875,-0.289062,0.138672,0.011719,0.107422
852931.0,9.636719,-1.550781,-0.292969,0.027344,0.105469,-0.222656,0.119141,0.029297,0.09375
852955.0,9.636719,-1.589844,-0.175781,-0.011719,0.058594,-0.082031,0.115234,0.037109,0.085938
852971.0,9.554688,-1.589844,-0.140625,-0.050781,0.027344,-0.015625,0.095703,0.044922,0.089844
852994.0,9.597656,-1.550781,-0.101562,-0.042969,0.128906,-0.03125,0.0625,0.048828,0.085938
853010.0,9.671875,-1.550781,-0.101562,-0.003906,0.128906,0.0,0.048828,0.042969,0.078125
853033.0,9.675781,-1.589844,0.015625,0.042969,0.113281,0.0625,0.046875,0.033203,0.064453
853066.0,9.671875,-1.628906,0.128906,0.078125,0.015625,0.128906,0.056641,0.005859,0.058594
853081.0,9.714844,-1.703125,0.015625,0.117188,-0.015625,0.089844,0.0625,0.011719,0.058594
853104.0,9.671875,-1.628906,-0.023438,0.050781,0.113281,0.007812,0.03125,0.005859,0.052734
853121.0,9.59375,-1.628906,-0.0625,0.050781,0.121094,-0.03125,-0.007812,0.011719,0.046875
853145.0,9.558594,-1.628906,-0.0625,-0.066406,0.128906,-0.039062,-0.033203,0.011719,0.044922
853161.0,9.636719,-1.703125,-0.0625,-0.027344,0.054688,-0.039062,-0.023438,-0.001953,0.046875
853183.0,9.636719,-1.664062,-0.0625,0.011719,0.109375,-0.03125,-0.009766,-0.005859,0.041016
853214.0,9.671875,-1.703125,-0.0625,0.050781,0.085938,-0.03125,-0.009766,-0.011719,0.041016
853230.0,9.675781,-1.703125,-0.140625,0.011719,0.085938,-0.070312,-0.005859,-0.005859,0.041016
853254.0,9.636719,-1.628906,-0.140625,0.019531,0.167969,-0.101562,-0.007812,-0.009766,0.041016
853270.0,9.597656,-1.703125,-0.101562,0.019531,0.140625,-0.070312,-0.019531,-0.009766,0.039062
853293.0,9.515625,-1.742188,-0.0625,-0.097656,0.070312,-0.023438,-0.017578,-0.013672,0.037109
853310.0,9.558594,-1.742188,-0.023438,-0.097656,0.109375,0.015625,-0.003906,-0.029297,0.033203
853333.0,9.636719,-1.742188,-0.0625,0.003906,-0.085938,-0.015625,0.009766,-0.029297,0.029297
853373.0,9.558594,-1.820312,-0.0625,-0.074219,-0.140625,0.0,-0.029297,-0.03125,0.027344
853413.0,9.519531,-2.011719,-0.101562,-0.113281,-0.308594,-0.023438,0.068359,-0.064453,0.029297
853431.0,9.519531,-1.894531,-0.140625,-0.066406,-0.261719,-0.015625,0.140625,-0.083984,0.029297
853445.0,9.519531,-1.820312,-0.101562,-0.066406,-0.007812,-0.007812,0.148438,-0.095703,0.021484
853461.0,9.632812,-1.742188,-0.140625,-0.027344,0.03125,0.0,0.152344,-0.101562,0.023438
853484.0,9.671875,-1.820312,-0.175781,0.058594,-0.0625,-0.050781,0.160156,-0.103516,0.021484
853501.0,9.632812,-1.78125,-0.175781,0.027344,-0.0625,-0.042969,0.166016,-0.105469,0.013672
853524.0,9.632812,-1.855469,-0.214844,0.019531,-0.089844,-0.058594,0.166016,-0.103516,0.015625
853542.0,9.59375,-1.855469,-0.292969,0.019531,-0.113281,-0.082031,0.158203,-0.089844,0.015625
853556.0,9.636719,-1.820312,-0.367188,0.019531,0.007812,-0.179688,0.160156,-0.087891,0.013672
853570.0,9.632812,-1.628906,-0.332031,0.058594,0.046875,-0.179688,0.140625,-0.080078,0.005859
853603.0,9.75,-1.664062,-0.40625,0.140625,0.125,-0.179688,0.082031,-0.048828,0.003906
853621.0,9.632812,-1.664062,-0.40625,0.09375,0.125,-0.210938,0.044922,-0.027344,0.003906
853635.0,9.675781,-1.703125,-0.40625,0.050781,0.039062,-0.195312,0.039062,-0.021484,0.005859
853673.0,9.597656,-1.703125,-0.332031,-0.027344,0.070312,-0.058594,0.013672,-0.005859,0.001953
853714.0,9.636719,-1.78125,-0.253906,0.011719,-0.007812,0.027344,0.015625,-0.001953,0.011719
853730.0,9.671875,-1.742188,-0.332031,0.011719,-0.015625,-0.003906,0.035156,-0.007812,0.011719
853753.0,9.597656,-1.742188,-0.253906,-0.035156,0.023438,0.035156,0.027344,0.0,0.011719
853770.0,9.597656,-1.78125,-0.214844,-0.035156,0.023438,0.035156,0.011719,-0.005859,0.017578
853793.0,9.636719,-1.820312,-0.175781,0.003906,-0.054688,0.113281,0.033203,-0.015625,0.013672
853825.0,9.632812,-1.742188,-0.175781,0.003906,0.03125,0.113281,0.039062,-0.03125,0.017578
853840.0,9.632812,-1.820312,-0.214844,-0.035156,0.0,0.082031,0.023438,-0.035156,0.015625
853862.0,9.488281,-1.820312,-0.140625,-0.140625,-0.039062,0.148438,0.021484,-0.035156,0.017578
853872.0,9.515625,-1.855469,-0.175781,-0.105469,-0.074219,0.121094,0.027344,-0.048828,0.015625
853903.0,9.632812,-1.742188,-0.175781,0.019531,0.046875,0.121094,0.033203,-0.064453,0.015625
853920.0,9.597656,-1.742188,-0.253906,-0.019531,0.054688,0.050781,0.005859,-0.060547,0.015625
853942.0,9.59375,-1.820312,-0.214844,-0.011719,-0.023438,0.097656,0.0,-0.064453,0.015625
853974.0,9.636719,-1.78125,-0.292969,0.027344,0.023438,0.027344,0.033203,-0.076172,0.021484
853991.0,9.632812,-1.742188,-0.40625,0.027344,0.03125,-0.003906,0.035156,-0.082031,0.025391
854013.0,9.597656,-1.742188,-0.445312,-0.011719,0.070312,-0.101562,0.03125,-0.078125,0.027344
854030.0,9.59375,-1.703125,-0.484375,0.035156,0.109375,-0.09375,0.009766,-0.072266,0.03125
854053.0,9.636719,-1.820312,-0.523438,0.035156,0.0,-0.140625,0.005859,-0.070312,0.03125
854093.0,9.636719,-1.855469,-0.523438,0.035156,-0.027344,-0.117188,0.011719,-0.056641,0.041016
854110.0,9.636719,-1.820312,-0.558594,0.074219,-0.027344,-0.101562,0.023438,-0.044922,0.044922
854134.0,9.59375,-1.78125,-0.558594,0.003906,0.054688,-0.121094,0.015625,-0.037109,0.044922
854151.0,9.636719,-1.855469,-0.558594,0.003906,0.023438,-0.078125,0.017578,-0.029297,0.048828
854164.0,9.632812,-1.855469,-0.597656,-0.003906,0.03125,-0.097656,0.025391,-0.025391,0.048828
854180.0,9.636719,-1.78125,-0.597656,-0.003906,0.039062,-0.089844,0.011719,-0.015625,0.052734
854202.0,9.597656,-1.820312,-0.523438,-0.003906,0.046875,-0.039062,0.001953,-0.011719,0.052734
854212.0,9.636719,-1.855469,-0.558594,0.042969,0.011719,-0.074219,-0.009766,-0.003906,0.054688
854242.0,9.558594,-1.933594,-0.484375,-0.035156,-0.050781,0.007812,-0.013672,0.0,0.056641
854281.0,9.59375,-1.972656,-0.445312,0.003906,-0.066406,0.054688,0.001953,-0.005859,0.054688
854292.0,9.558594,-1.933594,-0.484375,-0.027344,-0.019531,0.015625,0.003906,-0.003906,0.052734
854323.0,9.632812,-1.933594,-0.558594,0.050781,-0.003906,-0.058594,0.001953,0.001953,0.052734
854340.0,9.632812,-1.933594,-0.558594,0.050781,0.003906,-0.023438,0.005859,0.005859,0.052734
854354.0,9.59375,-1.933594,-0.558594,-0.019531,0.011719,-0.050781,0.013672,0.009766,0.054688
854370.0,9.597656,-1.972656,-0.523438,-0.019531,0.019531,-0.015625,0.013672,0.013672,0.056641
854392.0,9.59375,-2.085938,-0.484375,0.019531,-0.117188,0.015625,0.013672,0.015625,0.058594
854409.0,9.558594,-2.085938,-0.523438,-0.019531,-0.101562,-0.023438,0.044922,0.019531,0.052734
854422.0,9.558594,-2.050781,-0.484375,-0.019531,-0.058594,0.015625,0.039062,0.019531,0.050781
854442.0,9.558594,-2.050781,-0.40625,-0.019531,-0.050781,0.078125,0.027344,0.025391,0.050781
854472.0,9.558594,-2.050781,-0.367188,-0.019531,-0.027344,0.109375,0.011719,0.027344,0.046875
854512.0,9.515625,-2.085938,-0.332031,-0.042969,-0.039062,0.121094,0.009766,0.015625,0.046875
854530.0,9.558594,-2.050781,-0.40625,-0.003906,-0.039062,0.085938,0.011719,0.011719,0.042969
854544.0,9.597656,-2.011719,-0.40625,0.074219,0.089844,0.0,-0.007812,0.019531,0.037109
854560.0,9.597656,-2.011719,-0.484375,0.035156,0.089844,-0.046875,-0.052734,0.035156,0.035156
854583.0,9.515625,-2.164062,-0.445312,-0.035156,-0.085938,-0.023438,-0.060547,0.039062,0.035156
854600.0,9.519531,-2.164062,-0.40625,-0.035156,-0.085938,-0.023438,-0.039062,0.039062,0.029297
854623.0,9.515625,-2.050781,-0.332031,-0.035156,0.035156,0.082031,-0.03125,0.039062,0.033203
854639.0,9.554688,-2.050781,-0.332031,0.003906,0.0,0.046875,-0.044922,0.041016,0.029297
854661.0,9.515625,-2.125,-0.332031,-0.035156,-0.023438,0.066406,-0.052734,0.039062,0.03125
854703.0,9.515625,-2.164062,-0.292969,-0.035156,-0.054688,0.082031,-0.039062,0.03125,0.029297
854719.0,9.488281,-2.125,-0.332031,-0.070312,-0.007812,0.042969,-0.058594,0.033203,0.029297
854734.0,9.554688,-2.085938,-0.332031,-0.027344,0.039062,-0.007812,-0.0625,0.037109,0.027344
854749.0,9.519531,-2.085938,-0.40625,-0.019531,0.0,-0.046875,-0.0625,0.037109,0.029297
854772.0,9.554688,-2.085938,-0.445312,0.019531,0.046875,-0.085938,-0.060547,0.035156,0.029297
854789.0,9.558594,-2.125,-0.40625,0.019531,0.007812,-0.054688,-0.050781,0.041016,0.035156
854813.0,9.59375,-2.085938,-0.40625,0.058594,0.054688,-0.0625,-0.046875,0.048828,0.033203
854829.0,9.558594,-2.085938,-0.367188,0.058594,0.054688,-0.0625,-0.050781,0.056641,0.033203
854852.0,9.519531,-2.125,-0.367188,-0.019531,0.03125,-0.039062,-0.060547,0.0625,0.033203
854892.0,9.515625,-2.125,-0.332031,-0.019531,0.03125,-0.011719,-0.074219,0.0625,0.039062
854909.0,9.515625,-2.125,-0.292969,0.019531,0.03125,0.019531,-0.080078,0.0625,0.037109
854929.0,9.515625,-2.085938,-0.292969,-0.011719,0.039062,-0.027344,-0.095703,0.060547,0.041016
854949.0,9.515625,-2.125,-0.332031,-0.011719,0.085938,0.003906,-0.101562,0.0625,0.039062
854963.0,9.554688,-2.125,-0.292969,0.027344,0.015625,-0.003906,-0.109375,0.0625,0.041016
854979.0,9.515625,-2.164062,-0.292969,-0.011719,0.015625,-0.003906,-0.109375,0.0625,0.044922
855003.0,9.554688,-2.203125,-0.332031,0.027344,-0.007812,-0.058594,-0.101562,0.066406,0.044922
855020.0,9.554688,-2.125,-0.292969,0.027344,0.03125,-0.058594,-0.111328,0.070312,0.048828
855042.0,9.515625,-2.164062,-0.332031,-0.003906,0.046875,-0.074219,-0.138672,0.082031,0.046875
855059.0,9.488281,-2.242188,-0.292969,-0.003906,0.015625,-0.035156,-0.142578,0.078125,0.054688
855082.0,9.519531,-2.316406,-0.253906,-0.003906,-0.082031,-0.011719,-0.109375,0.074219,0.052734
855113.0,9.515625,-2.242188,-0.253906,0.003906,0.0,-0.027344,-0.072266,0.060547,0.054688
855129.0,9.554688,-2.277344,-0.253906,0.042969,0.007812,0.011719,-0.064453,0.064453,0.056641
855153.0,9.488281,-2.277344,-0.253906,-0.03125,-0.019531,-0.035156,-0.074219,0.068359,0.052734
855169.0,9.515625,-2.277344,-0.292969,-0.070312,-0.011719,-0.042969,-0.089844,0.074219,0.050781
855192.0,9.488281,-2.277344,-0.253906,-0.023438,0.003906,-0.058594,-0.107422,0.082031,0.048828
855208.0,9.519531,-2.316406,-0.253906,-0.023438,0.003906,-0.027344,-0.121094,0.089844,0.044922
855232.0,9.515625,-2.355469,-0.175781,-0.003906,-0.144531,0.097656,-0.113281,0.091797,0.046875
855249.0,9.484375,-2.394531,-0.140625,-0.003906,-0.144531,0.125,-0.083984,0.082031,0.048828
855272.0,9.445312,-2.394531,-0.101562,-0.078125,-0.167969,0.140625,-0.048828,0.072266,0.042969
855289.0,9.484375,-2.433594,-0.140625,-0.03125,-0.191406,0.132812,-0.015625,0.0625,0.048828
855303.0,9.449219,-2.394531,-0.140625,-0.070312,-0.097656,0.117188,0.001953,0.058594,0.052734
855319.0,9.484375,-2.394531,-0.140625,-0.03125,-0.128906,0.101562,0.005859,0.058594,0.046875
855342.0,9.519531,-2.355469,-0.101562,0.011719,-0.058594,0.078125,0.003906,0.052734,0.041016
855359.0,9.519531,-2.355469,-0.101562,0.011719,-0.058594,0.070312,-0.001953,0.060547,0.042969
855382.0,9.449219,-2.316406,-0.0625,-0.054688,0.003906,0.085938,-0.019531,0.060547,0.041016
855400.0,9.488281,-2.394531,-0.101562,-0.015625,-0.035156,0.039062,-0.017578,0.0625,0.041016
855422.0,9.488281,-2.394531,-0.101562,-0.007812,-0.042969,0.015625,-0.001953,0.064453,0.042969
855439.0,9.519531,-2.355469,-0.0625,-0.007812,0.003906,0.007812,-0.017578,0.064453,0.044922
855461.0,9.488281,-2.433594,-0.0625,-0.007812,-0.066406,0.023438,-0.021484,0.066406,0.044922
855479.0,9.484375,-2.394531,-0.023438,0.0,-0.058594,0.015625,-0.011719,0.068359,0.044922
855499.0,9.445312,-2.433594,0.015625,0.0,-0.042969,0.039062,-0.009766,0.064453,0.042969
855519.0,9.488281,-2.433594,0.015625,-0.039062,-0.042969,0.070312,0.0,0.0625,0.042969
855539.0,9.449219,-2.46875,0.089844,0.007812,-0.101562,0.046875,0.021484,0.052734,0.044922
855559.0,9.488281,-2.433594,0.050781,-0.03125,-0.054688,0.113281,0.033203,0.044922,0.044922
855579.0,9.449219,-2.394531,0.128906,-0.03125,0.035156,0.128906,0.037109,0.039062,0.044922
855611.0,9.449219,-2.507812,0.089844,-0.023438,-0.054688,0.058594,0.068359,0.029297,0.044922
855643.0,9.449219,-2.507812,0.089844,-0.023438,0.0,0.035156,0.060547,0.025391,0.044922
855659.0,9.484375,-2.46875,0.128906,-0.015625,0.0,0.074219,0.041016,0.019531,0.042969
855683.0,9.484375,-2.46875,0.128906,0.023438,0.015625,0.058594,0.035156,0.017578,0.044922
855698.0,9.449219,-2.507812,0.128906,0.023438,-0.007812,0.050781,0.035156,0.011719,0.042969
855722.0,9.484375,-2.507812,0.128906,0.03125,0.0,0.042969,0.029297,0.007812,0.041016
855739.0,9.449219,-2.507812,0.128906,-0.007812,0.007812,-0.003906,0.017578,0.007812,0.039062
855762.0,9.445312,-2.546875,0.167969,0.0,-0.023438,0.066406,0.015625,-0.003906,0.041016
855779.0,9.40625,-2.585938,0.128906,0.0,-0.054688,0.019531,0.035156,-0.003906,0.039062
855801.0,9.484375,-2.585938,0.089844,0.039062,-0.046875,-0.019531,0.046875,-0.011719,0.037109
855819.0,9.445312,-2.546875,0.089844,0.0,-0.039062,-0.058594,0.052734,-0.011719,0.039062
855833.0,9.449219,-2.546875,0.050781,0.007812,0.007812,-0.066406,0.056641,-0.011719,0.039062
855848.0,9.445312,-2.546875,0.089844,0.007812,0.015625,-0.027344,0.050781,-0.015625,0.039062
855871.0,9.445312,-2.546875,0.128906,0.007812,0.023438,0.019531,0.041016,-0.013672,0.039062
855888.0,9.488281,-2.546875,0.089844,0.007812,0.070312,-0.058594,0.017578,-0.007812,0.041016
855912.0,9.449219,-2.507812,0.089844,0.007812,0.070312,-0.011719,0.0,-0.003906,0.044922
855929.0,9.484375,-2.507812,0.089844,0.015625,0.078125,-0.011719,-0.023438,-0.003906,0.050781
855951.0,9.488281,-2.507812,0.015625,0.054688,0.078125,-0.085938,-0.03125,-0.001953,0.050781
855968.0,9.484375,-2.546875,-0.0625,0.089844,0.046875,-0.125,-0.03125,0.019531,0.054688
855991.0,9.488281,-2.507812,-0.101562,0.046875,0.101562,-0.203125,-0.039062,0.025391,0.056641
856008.0,9.484375,-2.546875,-0.101562,0.046875,0.0625,-0.195312,-0.050781,0.048828,0.060547
856022.0,9.484375,-2.546875,-0.101562,0.015625,0.070312,-0.15625,-0.060547,0.054688,0.0625
856038.0,9.445312,-2.585938,-0.0625,0.015625,0.070312,-0.148438,-0.083984,0.068359,0.060547
856060.0,9.449219,-2.699219,0.015625,0.015625,-0.066406,-0.070312,-0.082031,0.074219,0.058594
856100.0,9.410156,-2.816406,0.246094,-0.015625,-0.167969,0.144531,-0.078125,0.076172,0.056641
856111.0,9.367188,-2.851562,0.246094,-0.054688,-0.1875,0.144531,-0.058594,0.072266,0.050781
856142.0,9.328125,-2.890625,0.28125,-0.085938,-0.203125,0.164062,-0.005859,0.046875,0.039062
856158.0,9.367188,-2.851562,0.246094,-0.085938,-0.195312,0.15625,0.029297,0.03125,0.037109
856181.0,9.332031,-2.816406,0.207031,-0.078125,-0.097656,0.058594,0.046875,0.025391,0.025391
856198.0,9.371094,-2.816406,0.167969,-0.03125,-0.125,0.011719,0.060547,0.021484,0.021484
856218.0,9.367188,-2.777344,0.207031,-0.03125,-0.042969,0.003906,0.056641,0.017578,0.017578
856238.0,9.328125,-2.777344,0.246094,-0.03125,-0.042969,0.042969,0.060547,0.013672,0.017578
856267.0,9.332031,-2.816406,0.320312,-0.054688,-0.09375,0.09375,0.101562,-0.007812,0.013672
856292.0,9.40625,-2.699219,0.28125,0.03125,0.074219,0.085938,0.107422,-0.015625,0.015625
856308.0,9.40625,-2.777344,0.207031,-0.015625,0.035156,0.085938,0.105469,-0.019531,0.011719
856331.0,9.371094,-2.699219,0.246094,-0.007812,0.074219,0.050781,0.091797,-0.021484,0.011719
856347.0,9.371094,-2.660156,0.28125,0.023438,0.121094,0.078125,0.046875,-0.023438,0.015625
856370.0,9.367188,-2.738281,0.207031,-0.007812,0.042969,0.011719,0.027344,-0.025391,0.017578
856388.0,9.449219,-2.777344,0.207031,0.03125,0.042969,0.050781,0.046875,-0.03125,0.013672
856407.0,9.40625,-2.738281,0.246094,-0.007812,0.042969,0.011719,0.064453,-0.035156,0.013672
856428.0,9.445312,-2.699219,0.207031,-0.007812,0.097656,0.050781,0.072266,-0.039062,0.023438
856441.0,9.449219,-2.738281,0.167969,0.03125,0.097656,-0.027344,0.080078,-0.03125,0.021484
856458.0,9.410156,-2.699219,0.089844,0.03125,0.097656,-0.058594,0.072266,-0.027344,0.027344
856480.0,9.410156,-2.699219,0.089844,0.039062,0.105469,-0.097656,0.056641,-0.027344,0.025391
856521.0,9.367188,-2.738281,0.207031,0.0,0.074219,0.019531,-0.017578,-0.003906,0.029297
856538.0,9.410156,-2.816406,0.246094,0.0,-0.003906,0.019531,-0.013672,-0.009766,0.025391
856560.0,9.40625,-2.738281,0.246094,0.039062,0.089844,0.066406,0.011719,-0.021484,0.023438
856591.0,9.332031,-2.816406,0.167969,-0.03125,0.011719,-0.011719,0.027344,-0.013672,0.021484
856608.0,9.371094,-2.816406,0.089844,-0.03125,-0.042969,-0.089844,0.005859,-0.009766,0.019531
856630.0,9.40625,-2.738281,0.089844,0.015625,-0.003906,-0.128906,0.0,-0.007812,0.019531
856647.0,9.410156,-2.816406,0.089844,0.054688,-0.027344,-0.121094,0.001953,0.0,0.021484
856670.0,9.410156,-2.816406,0.128906,0.015625,-0.066406,-0.074219,0.001953,0.001953,0.021484
856703.0,9.367188,-2.738281,0.128906,-0.023438,0.019531,-0.074219,0.0,0.003906,0.023438
856727.0,9.367188,-2.777344,0.128906,-0.015625,-0.011719,-0.027344,-0.011719,0.011719,0.027344
856750.0,9.367188,-2.851562,0.128906,-0.015625,-0.078125,-0.058594,-0.009766,0.009766,0.029297
856767.0,9.371094,-2.890625,0.167969,0.023438,-0.070312,0.019531,-0.015625,0.013672,0.019531
856782.0,9.367188,-2.851562,0.246094,0.023438,-0.0625,-0.019531,-0.027344,0.013672,0.019531
856797.0,9.40625,-2.851562,0.207031,-0.015625,-0.0625,0.019531,-0.041016,0.017578,0.015625
856821.0,9.371094,-2.890625,0.167969,-0.007812,-0.085938,-0.011719,-0.037109,0.019531,0.015625
856837.0,9.371094,-2.890625,0.167969,-0.007812,-0.085938,-0.011719,-0.03125,0.021484,0.005859
856861.0,9.371094,-2.890625,0.167969,-0.007812,-0.078125,-0.011719,-0.019531,0.021484,0.005859
856877.0,9.367188,-2.851562,0.246094,-0.015625,-0.03125,0.019531,-0.027344,0.019531,0.005859
856901.0,9.328125,-2.929688,0.28125,-0.046875,-0.101562,0.09375,-0.009766,0.011719,0.001953
856918.0,9.367188,-2.929688,0.28125,-0.046875,-0.054688,0.09375,0.003906,0.0,-0.001953
856932.0,9.371094,-2.890625,0.246094,-0.046875,-0.054688,0.058594,0.009766,-0.001953,0.0
856948.0,9.332031,-2.929688,0.207031,-0.007812,-0.054688,0.058594,0.013672,-0.005859,-0.007812
856970.0,9.371094,-2.890625,0.207031,-0.007812,-0.039062,0.011719,0.017578,-0.013672,-0.007812
856987.0,9.332031,-2.890625,0.207031,-0.007812,-0.039062,0.050781,0.025391,-0.005859,-0.011719
857010.0,9.332031,-2.890625,0.167969,-0.03125,-0.039062,-0.027344,0.033203,-0.011719,-0.017578
857027.0,9.367188,-2.851562,0.167969,0.007812,-0.039062,-0.035156,0.060547,-0.023438,-0.019531
857050.0,9.371094,-2.816406,0.207031,0.0,0.027344,0.011719,0.058594,-0.019531,-0.019531
857090.0,9.371094,-2.816406,0.128906,0.0,0.027344,-0.066406,0.048828,-0.019531,-0.019531
857122.0,9.371094,-2.816406,0.167969,0.039062,0.019531,0.011719,0.039062,-0.011719,-0.021484
857137.0,9.371094,-2.816406,0.207031,0.0,0.019531,-0.019531,0.037109,-0.009766,-0.025391
857161.0,9.371094,-2.816406,0.207031,0.0,0.011719,0.019531,0.037109,-0.007812,-0.03125
857177.0,9.40625,-2.777344,0.207031,0.0,0.042969,0.011719,0.015625,-0.009766,-0.03125
857201.0,9.367188,-2.777344,0.128906,-0.007812,0.035156,-0.058594,-0.005859,-0.007812,-0.029297
857217.0,9.40625,-2.738281,0.128906,-0.007812,0.074219,-0.058594,-0.019531,-0.003906,-0.029297
857241.0,9.410156,-2.738281,0.050781,0.023438,0.050781,-0.128906,-0.025391,0.005859,-0.025391
857257.0,9.445312,-2.699219,0.089844,0.0625,0.050781,-0.128906,-0.041016,0.015625,-0.029297
857280.0,9.40625,-2.777344,0.167969,0.023438,0.003906,-0.003906,-0.033203,0.017578,-0.027344
857297.0,9.367188,-2.777344,0.167969,0.015625,-0.011719,-0.035156,-0.017578,0.023438,-0.033203
857320.0,9.371094,-2.816406,0.320312,-0.023438,-0.058594,0.148438,-0.025391,0.015625,-0.035156
857337.0,9.367188,-2.816406,0.28125,-0.023438,-0.019531,0.074219,-0.023438,0.011719,-0.035156
857352.0,9.371094,-2.816406,0.246094,-0.070312,-0.066406,0.074219,-0.025391,0.005859,-0.037109
857367.0,9.367188,-2.777344,0.207031,0.007812,-0.027344,0.074219,-0.021484,0.003906,-0.041016
857389.0,9.40625,-2.738281,0.167969,0.007812,0.003906,-0.011719,-0.027344,0.001953,-0.041016
857407.0,9.367188,-2.738281,0.167969,0.007812,-0.003906,-0.011719,-0.037109,0.001953,-0.042969
857429.0,9.410156,-2.699219,0.207031,0.007812,0.027344,0.035156,-0.033203,0.001953,-0.041016
857462.0,9.40625,-2.738281,0.167969,0.0,-0.027344,-0.003906,-0.005859,-0.005859,-0.039062
857487.0,9.371094,-2.699219,0.207031,0.0,0.011719,0.066406,0.009766,-0.007812,-0.037109
857501.0,9.410156,-2.699219,0.207031,-0.039062,0.042969,0.027344,0.011719,-0.011719,-0.041016
857516.0,9.410156,-2.699219,0.207031,0.0,0.003906,-0.003906,0.001953,-0.009766,-0.041016
857541.0,9.40625,-2.660156,0.167969,-0.007812,0.027344,-0.003906,0.003906,-0.011719,-0.041016
857557.0,9.449219,-2.660156,0.207031,0.03125,-0.011719,-0.003906,-0.009766,-0.013672,-0.042969
857580.0,9.410156,-2.699219,0.207031,-0.007812,-0.027344,0.042969,-0.003906,-0.013672,-0.039062
857597.0,9.40625,-2.660156,0.207031,-0.007812,0.011719,-0.003906,0.011719,-0.017578,-0.042969
857619.0,9.449219,-2.660156,0.128906,0.023438,-0.003906,-0.035156,0.015625,-0.017578,-0.042969
857637.0,9.40625,-2.660156,0.128906,-0.015625,-0.003906,0.003906,0.019531,-0.019531,-0.044922
857660.0,9.40625,-2.625,0.089844,-0.015625,0.015625,-0.074219,0.019531,-0.019531,-0.044922
857677.0,9.449219,-2.625,0.089844,0.023438,0.015625,-0.074219,0.001953,-0.015625,-0.046875
857697.0,9.445312,-2.546875,0.089844,0.054688,0.085938,-0.019531,-0.011719,-0.007812,-0.046875
857717.0,9.40625,-2.585938,0.089844,0.015625,0.078125,-0.058594,-0.015625,0.0,-0.052734
857746.0,9.40625,-2.625,0.128906,0.007812,-0.058594,-0.011719,0.017578,-0.011719,-0.054688
857769.0,9.40625,-2.585938,0.207031,-0.03125,0.0,0.066406,0.025391,-0.011719,-0.048828
857786.0,9.449219,-2.625,0.207031,0.0,-0.007812,0.105469,0.023438,-0.019531,-0.056641
857809.0,9.40625,-2.585938,0.167969,-0.039062,-0.023438,0.035156,0.033203,-0.023438,-0.056641
857826.0,9.445312,-2.546875,0.167969,0.0,-0.023438,0.027344,0.011719,-0.017578,-0.064453
857849.0,9.449219,-2.507812,0.167969,-0.007812,0.039062,0.035156,-0.001953,-0.015625,-0.064453
857866.0,9.484375,-2.507812,0.128906,0.03125,0.03125,0.035156,-0.021484,-0.011719,-0.070312
857887.0,9.445312,-2.546875,0.207031,-0.007812,0.015625,0.035156,-0.011719,-0.017578,-0.068359
857906.0,9.40625,-2.585938,0.207031,-0.015625,-0.03125,0.121094,0.021484,-0.029297,-0.070312
857920.0,9.40625,-2.585938,0.246094,-0.054688,-0.085938,0.148438,0.042969,-0.041016,-0.068359
857936.0,9.410156,-2.546875,0.246094,-0.09375,-0.085938,0.121094,0.074219,-0.056641,-0.066406
857960.0,9.484375,-2.46875,0.167969,0.023438,0.007812,0.035156,0.099609,-0.066406,-0.066406
857976.0,9.519531,-2.316406,0.050781,0.058594,0.074219,0.003906,0.085938,-0.066406,-0.064453
857999.0,9.558594,-2.277344,-0.023438,0.089844,0.175781,-0.140625,0.033203,-0.044922,-0.066406
858016.0,9.519531,-2.316406,-0.101562,0.089844,0.128906,-0.21875,-0.007812,-0.025391,-0.060547
858038.0,9.554688,-2.242188,-0.0625,0.074219,0.179688,-0.15625,-0.023438,-0.015625,-0.0625
858070.0,9.519531,-2.355469,0.015625,0.027344,0.035156,-0.070312,-0.089844,0.019531,-0.056641
858086.0,9.519531,-2.355469,0.050781,0.027344,0.019531,-0.0625,-0.080078,0.021484,-0.046875
858109.0,9.484375,-2.316406,0.050781,-0.015625,0.042969,-0.027344,-0.064453,0.019531,-0.046875
858126.0,9.554688,-2.316406,0.128906,0.019531,0.074219,0.019531,-0.097656,0.025391,-0.042969
858149.0,9.40625,-2.46875,0.089844,-0.109375,-0.132812,0.019531,-0.111328,0.025391,-0.03125
858166.0,9.488281,-2.433594,0.050781,-0.070312,-0.105469,0.019531,-0.044922,0.007812,-0.03125
858189.0,9.519531,-2.277344,0.089844,0.003906,0.042969,0.019531,-0.005859,-0.003906,-0.033203
858238.0,9.449219,-2.433594,0.207031,-0.070312,-0.128906,0.144531,-0.023438,-0.015625,-0.029297
858259.0,9.449219,-2.394531,0.246094,-0.070312,-0.089844,0.183594,0.0,-0.041016,-0.03125
858276.0,9.449219,-2.355469,0.28125,-0.0625,-0.050781,0.257812,0.091797,-0.078125,-0.025391
858299.0,9.449219,-2.433594,0.167969,-0.070312,-0.128906,0.097656,0.152344,-0.107422,-0.023438
858316.0,9.484375,-2.46875,0.128906,-0.070312,-0.136719,0.074219,0.214844,-0.130859,-0.025391
858339.0,9.484375,-2.394531,0.089844,-0.03125,-0.105469,0.050781,0.234375,-0.138672,-0.025391
858378.0,9.488281,-2.433594,0.015625,-0.03125,-0.144531,0.007812,0.242188,-0.152344,-0.023438
858418.0,9.484375,-2.316406,-0.0625,-0.039062,-0.042969,-0.03125,0.3125,-0.173828,-0.025391
858436.0,9.515625,-2.316406,-0.175781,-0.03125,-0.042969,-0.0625,0.337891,-0.179688,-0.021484
858451.0,9.519531,-2.316406,-0.214844,0.035156,-0.042969,-0.121094,0.341797,-0.175781,-0.025391
858466.0,9.554688,-2.316406,-0.175781,0.042969,-0.011719,-0.105469,0.34375,-0.169922,-0.03125
858488.0,9.515625,-2.355469,-0.175781,0.003906,-0.089844,-0.089844,0.357422,-0.166016,-0.029297
858499.0,9.515625,-2.355469,-0.175781,0.003906,-0.097656,-0.082031,0.373047,-0.167969,-0.035156
858518.0,9.515625,-2.242188,-0.214844,0.003906,0.007812,-0.105469,0.373047,-0.162109,-0.042969
858538.0,9.558594,-2.355469,-0.253906,0.042969,-0.113281,-0.128906,0.330078,-0.140625,-0.042969
858569.0,9.515625,-2.316406,-0.175781,-0.003906,-0.089844,-0.035156,0.3125,-0.134766,-0.060547
858585.0,9.558594,-2.242188,-0.140625,0.035156,-0.050781,-0.035156,0.333984,-0.136719,-0.060547
858609.0,9.554688,-1.78125,-0.0625,0.035156,0.429688,0.101562,0.300781,-0.140625,-0.060547
858626.0,9.519531,-1.972656,-0.101562,0.035156,0.382812,0.148438,0.195312,-0.126953,-0.052734
858640.0,9.558594,-2.203125,-0.175781,-0.046875,-0.191406,-0.035156,0.181641,-0.123047,-0.052734
858656.0,9.449219,-2.546875,-0.292969,-0.046875,-0.351562,-0.074219,0.226562,-0.128906,-0.0625
858679.0,9.558594,-2.050781,-0.140625,0.027344,0.136719,0.070312,0.21875,-0.121094,-0.054688
858695.0,9.554688,-1.933594,-0.101562,-0.011719,0.285156,0.117188,0.146484,-0.111328,-0.048828
858719.0,9.554688,-2.164062,-0.332031,0.027344,0.0,-0.089844,0.148438,-0.117188,-0.050781
858736.0,9.558594,-2.203125,-0.40625,0.027344,-0.085938,-0.117188,0.207031,-0.115234,-0.048828
858758.0,9.59375,-1.933594,-0.367188,0.058594,0.214844,-0.101562,0.201172,-0.113281,-0.044922
858798.0,9.554688,-2.125,-0.332031,0.019531,0.015625,-0.042969,0.083984,-0.083984,-0.03125
858816.0,9.554688,-2.203125,-0.332031,-0.019531,-0.0625,-0.070312,0.121094,-0.082031,-0.025391
858830.0,9.519531,-2.164062,-0.367188,-0.019531,0.046875,-0.09375,0.117188,-0.080078,-0.025391
858845.0,9.59375,-1.972656,-0.445312,0.019531,0.121094,-0.09375,0.068359,-0.064453,-0.025391
858869.0,9.632812,-1.972656,-0.445312,0.097656,0.152344,-0.117188,-0.001953,-0.039062,-0.019531
858885.0,9.59375,-2.050781,-0.484375,0.058594,0.113281,-0.039062,-0.025391,-0.027344,-0.015625
858909.0,9.558594,-2.011719,-0.445312,0.011719,0.097656,-0.109375,-0.037109,-0.015625,-0.019531
858925.0,9.597656,-2.011719,-0.484375,0.050781,0.097656,-0.109375,-0.056641,-0.001953,-0.011719
858949.0,9.597656,-2.050781,-0.445312,0.050781,0.050781,-0.101562,-0.074219,0.011719,-0.005859
858965.0,9.554688,-2.050781,-0.445312,0.011719,0.050781,-0.101562,-0.074219,0.017578,-0.005859
858980.0,9.597656,-2.085938,-0.445312,0.050781,0.050781,-0.109375,-0.070312,0.025391,-0.001953
858995.0,9.597656,-2.011719,-0.40625,0.050781,0.089844,-0.109375,-0.080078,0.027344,-0.001953
859020.0,9.554688,-2.011719,-0.40625,0.011719,0.089844,-0.070312,-0.097656,0.039062,0.001953
859058.0,9.554688,-2.085938,-0.332031,0.011719,0.015625,-0.003906,-0.164062,0.060547,0.003906
859099.0,9.554688,-2.085938,-0.292969,0.011719,0.007812,0.027344,-0.166016,0.064453,0.005859
859115.0,9.554688,-2.050781,-0.332031,-0.027344,0.007812,-0.019531,-0.144531,0.056641,0.003906
859138.0,9.558594,-2.011719,-0.332031,0.011719,0.089844,-0.027344,-0.150391,0.058594,0.005859
859156.0,9.558594,-2.085938,-0.367188,0.011719,0.042969,-0.0625,-0.191406,0.070312,0.011719
859175.0,9.59375,-2.125,-0.40625,0.011719,0.007812,-0.109375,-0.191406,0.076172,0.005859
859195.0,9.554688,-2.085938,-0.332031,0.011719,-0.03125,-0.109375,-0.185547,0.078125,0.009766
859209.0,9.558594,-2.085938,-0.367188,0.011719,0.015625,-0.078125,-0.173828,0.080078,0.009766
859224.0,9.554688,-2.085938,-0.332031,-0.027344,0.015625,-0.125,-0.152344,0.082031,0.011719
859249.0,9.59375,-2.085938,-0.367188,0.050781,0.015625,-0.101562,-0.150391,0.085938,0.009766
859265.0,9.59375,-2.164062,-0.367188,0.050781,-0.0625,-0.140625,-0.132812,0.089844,0.005859
859288.0,9.59375,-2.203125,-0.367188,0.050781,-0.101562,-0.125,-0.107422,0.087891,0.009766
859305.0,9.515625,-2.164062,-0.292969,0.011719,-0.101562,-0.058594,-0.095703,0.09375,0.005859
859320.0,9.515625,-2.164062,-0.253906,-0.027344,-0.023438,-0.027344,-0.085938,0.089844,0.009766
859345.0,9.558594,-2.011719,-0.253906,0.011719,0.050781,-0.082031,-0.097656,0.097656,0.001953
859365.0,9.554688,-2.085938,-0.214844,0.011719,0.089844,-0.011719,-0.191406,0.113281,0.0
859385.0,9.519531,-2.242188,-0.140625,0.003906,-0.023438,0.011719,-0.214844,0.119141,0.003906
859399.0,9.519531,-2.277344,-0.140625,-0.042969,-0.15625,0.304688,-0.201172,0.113281,0.001953
859415.0,9.488281,-2.203125,0.050781,-0.078125,-0.078125,0.328125,-0.191406,0.097656,-0.013672
859438.0,9.488281,-2.203125,0.015625,-0.078125,-0.109375,0.304688,-0.152344,0.080078,-0.009766
859455.0,9.488281,-2.203125,-0.0625,-0.070312,-0.109375,0.25,-0.091797,0.052734,-0.013672
859478.0,9.597656,-1.933594,-0.101562,0.042969,0.160156,0.140625,-0.099609,0.048828,-0.021484
859495.0,9.59375,-1.972656,-0.101562,0.042969,0.152344,0.125,-0.203125,0.070312,-0.017578
859518.0,9.59375,-2.164062,-0.175781,0.042969,-0.078125,0.027344,-0.269531,0.083984,-0.019531
859535.0,9.519531,-2.125,-0.175781,0.003906,-0.078125,-0.011719,-0.248047,0.082031,-0.017578
859555.0,9.597656,-2.125,-0.214844,0.003906,-0.039062,-0.027344,-0.208984,0.083984,-0.017578
859575.0,9.59375,-2.125,-0.175781,0.042969,-0.046875,-0.027344,-0.138672,0.070312,-0.009766
859589.0,9.59375,-2.125,-0.175781,-0.035156,-0.085938,-0.003906,-0.097656,0.064453,-0.005859
859605.0,9.558594,-2.050781,-0.175781,0.003906,-0.046875,-0.050781,-0.035156,0.050781,-0.005859
859627.0,9.597656,-2.050781,-0.214844,0.042969,0.027344,-0.066406,-0.011719,0.050781,-0.005859
859667.0,9.554688,-2.050781,-0.0625,0.003906,0.027344,0.070312,-0.007812,0.060547,0.009766
859684.0,9.59375,-2.050781,-0.023438,0.003906,0.066406,0.101562,-0.050781,0.066406,0.003906
859707.0,9.554688,-2.085938,0.015625,0.003906,0.0,0.117188,-0.0625,0.058594,0.001953
859725.0,9.515625,-2.085938,0.015625,0.003906,-0.039062,0.152344,-0.078125,0.050781,0.0
859739.0,9.515625,-2.050781,0.015625,-0.035156,0.0,0.144531,-0.095703,0.050781,-0.001953
859754.0,9.554688,-2.125,0.050781,0.003906,0.0,0.136719,-0.123047,0.046875,-0.007812
859777.0,9.484375,-2.085938,0.089844,-0.070312,0.0,0.175781,-0.130859,0.046875,-0.009766
859818.0,9.515625,-2.125,0.015625,-0.035156,-0.046875,0.09375,-0.142578,0.025391,-0.007812
859834.0,9.558594,-2.125,-0.023438,-0.042969,-0.007812,0.101562,-0.095703,0.009766,-0.007812
859858.0,9.597656,-2.050781,-0.0625,0.035156,0.027344,0.023438,-0.060547,0.0,-0.009766
859874.0,9.554688,-2.085938,-0.101562,0.035156,-0.015625,0.023438,-0.042969,-0.003906,-0.007812
859898.0,9.597656,-2.050781,-0.101562,0.035156,0.019531,-0.007812,-0.050781,-0.003906,-0.001953
859915.0,9.597656,-2.050781,-0.101562,-0.003906,0.019531,-0.007812,-0.078125,0.007812,0.0
859929.0,9.597656,-2.050781,-0.101562,-0.003906,0.019531,-0.007812,-0.087891,0.007812,-0.001953
859945.0,9.554688,-2.050781,-0.101562,-0.003906,-0.015625,-0.007812,-0.085938,0.011719,0.0
859967.0,9.597656,-2.085938,-0.101562,0.042969,-0.015625,-0.070312,-0.072266,0.005859,0.001953
860008.0,9.558594,-2.011719,-0.101562,-0.003906,0.058594,-0.0625,-0.013672,-0.003906,0.003906
860024.0,9.597656,-2.050781,-0.101562,0.035156,0.019531,-0.015625,-0.015625,-0.009766,0.005859
860047.0,9.597656,-2.085938,-0.101562,0.035156,-0.007812,-0.054688,-0.003906,-0.007812,0.007812
860064.0,9.515625,-2.125,-0.0625,-0.011719,-0.015625,-0.007812,0.0,-0.005859,0.009766
860087.0,9.515625,-2.125,-0.0625,-0.050781,-0.046875,-0.007812,0.011719,-0.009766,0.005859
860104.0,9.515625,-2.085938,-0.101562,-0.050781,-0.046875,-0.039062,0.044922,-0.023438,0.001953
860119.0,9.554688,-2.085938,-0.0625,0.035156,0.027344,0.0,0.052734,-0.027344,0.003906
860134.0,9.554688,-2.125,-0.0625,0.035156,0.0,-0.03125,0.058594,-0.029297,0.003906
860158.0,9.558594,-2.164062,-0.023438,-0.003906,-0.078125,0.054688,0.064453,-0.033203,0.001953
860175.0,9.554688,-2.164062,-0.0625,-0.003906,-0.078125,0.007812,0.066406,-0.03125,-0.003906
860198.0,9.554688,-2.085938,-0.0625,-0.003906,0.007812,0.023438,0.0625,-0.033203,-0.001953
860215.0,9.554688,-2.050781,-0.0625,-0.003906,0.035156,-0.015625,0.039062,-0.03125,-0.009766
860238.0,9.554688,-2.125,-0.0625,-0.003906,-0.039062,0.03125,0.027344,-0.035156,-0.003906
860255.0,9.554688,-2.085938,-0.101562,-0.042969,0.0,0.03125,0.041016,-0.035156,-0.009766
860269.0,9.558594,-2.050781,-0.140625,-0.003906,0.035156,-0.074219,0.037109,-0.033203,-0.009766
860284.0,9.59375,-2.050781,-0.140625,0.035156,0.035156,-0.039062,0.029297,-0.03125,-0.009766
860307.0,9.558594,-2.085938,-0.175781,-0.003906,0.0,-0.066406,0.035156,-0.033203,-0.011719
860324.0,9.558594,-2.050781,-0.175781,-0.003906,-0.007812,-0.023438,0.050781,-0.03125,-0.007812
860347.0,9.554688,-2.050781,-0.214844,-0.011719,0.027344,-0.089844,0.046875,-0.029297,-0.009766
860364.0,9.59375,-2.050781,-0.175781,-0.003906,0.019531,-0.015625,0.052734,-0.027344,-0.009766
860388.0,9.636719,-2.011719,-0.175781,0.066406,0.050781,-0.035156,0.0625,-0.03125,-0.005859
860404.0,9.632812,-2.050781,-0.175781,0.027344,0.011719,-0.035156,0.070312,-0.021484,-0.003906
860427.0,9.558594,-2.050781,-0.175781,-0.019531,0.011719,-0.027344,0.068359,-0.023438,-0.007812
860444.0,9.558594,-2.050781,-0.175781,-0.019531,-0.023438,-0.027344,0.080078,-0.023438,0.0
860458.0,9.59375,-2.050781,-0.175781,0.019531,-0.023438,0.007812,0.089844,-0.021484,0.0
860474.0,9.554688,-2.050781,-0.101562,-0.019531,-0.023438,-0.027344,0.099609,-0.023438,-0.003906
860497.0,9.515625,-2.050781,-0.0625,-0.058594,0.011719,0.085938,0.087891,-0.027344,-0.001953
860513.0,9.554688,-2.050781,-0.0625,-0.019531,0.011719,0.046875,0.082031,-0.03125,-0.001953
860537.0,9.554688,-2.050781,-0.101562,-0.019531,0.011719,0.054688,0.082031,-0.035156,-0.001953
860554.0,9.59375,-2.085938,-0.175781,-0.019531,0.011719,0.054688,0.080078,-0.033203,-0.001953
860577.0,9.554688,-2.011719,-0.140625,-0.019531,0.050781,0.023438,0.072266,-0.033203,-0.003906
860594.0,9.554688,-2.050781,-0.214844,-0.019531,0.050781,-0.011719,0.052734,-0.027344,-0.001953
860616.0,9.59375,-2.011719,-0.214844,0.019531,0.042969,-0.042969,0.039062,-0.023438,-0.003906
860634.0,9.554688,-2.050781,-0.214844,-0.019531,0.011719,-0.042969,0.035156,-0.017578,-0.001953
860649.0,9.554688,-2.050781,-0.214844,0.019531,0.003906,-0.042969,0.033203,-0.019531,0.0
860663.0,9.59375,-2.050781,-0.175781,0.019531,0.050781,-0.003906,0.027344,-0.015625,0.0
860688.0,9.558594,-2.050781,-0.175781,-0.019531,0.003906,0.003906,0.021484,-0.011719,0.001953
860703.0,9.558594,-2.050781,-0.140625,-0.019531,0.003906,0.003906,0.027344,-0.011719,-0.005859
860727.0,9.558594,-2.050781,-0.140625,-0.019531,0.003906,0.046875,0.025391,-0.011719,-0.003906
860743.0,9.554688,-2.050781,-0.101562,-0.019531,-0.03125,0.085938,0.015625,-0.011719,-0.005859
860766.0,9.519531,-2.085938,-0.140625,-0.058594,-0.03125,0.046875,0.013672,-0.013672,-0.005859
860806.0,9.59375,-2.011719,-0.214844,0.035156,0.042969,-0.058594,0.013672,-0.019531,-0.005859
860837.0,9.558594,-2.011719,-0.214844,-0.003906,0.035156,-0.050781,-0.001953,-0.015625,-0.005859
860853.0,9.59375,-2.011719,-0.253906,0.035156,-0.003906,-0.089844,-0.009766,-0.005859,-0.001953
860877.0,9.59375,-2.011719,-0.292969,0.027344,0.035156,-0.121094,-0.019531,0.001953,-0.001953
860894.0,9.558594,-2.011719,-0.253906,0.027344,-0.003906,-0.121094,-0.03125,0.009766,-0.001953
860915.0,9.597656,-2.050781,-0.214844,0.027344,-0.003906,-0.035156,-0.025391,0.007812,-0.001953
860957.0,9.558594,-2.050781,-0.175781,-0.011719,-0.011719,0.003906,-0.050781,0.019531,0.0
860973.0,9.554688,-2.050781,-0.253906,-0.011719,-0.011719,-0.074219,-0.042969,0.023438,-0.001953
860996.0,9.59375,-2.011719,-0.214844,0.027344,0.019531,-0.027344,-0.066406,0.025391,-0.001953
861027.0,9.59375,-2.050781,-0.175781,0.027344,-0.019531,0.011719,-0.080078,0.03125,-0.001953
861043.0,9.59375,-2.085938,-0.175781,-0.011719,-0.019531,0.011719,-0.068359,0.029297,-0.001953
861066.0,9.59375,-2.050781,-0.175781,0.019531,-0.027344,0.003906,-0.066406,0.033203,-0.007812
861106.0,9.558594,-2.085938,-0.140625,-0.019531,-0.0625,0.03125,-0.083984,0.037109,-0.005859
861123.0,9.558594,-2.085938,-0.140625,-0.019531,-0.0625,-0.003906,-0.091797,0.037109,-0.005859
861146.0,9.59375,-2.050781,-0.140625,0.027344,-0.019531,0.03125,-0.091797,0.035156,-0.005859
861187.0,9.554688,-2.011719,-0.140625,-0.019531,0.011719,0.023438,-0.09375,0.025391,-0.011719
861203.0,9.597656,-2.050781,-0.101562,-0.019531,0.011719,0.023438,-0.097656,0.029297,-0.011719
861218.0,9.59375,-2.085938,-0.140625,-0.019531,-0.027344,0.054688,-0.089844,0.027344,-0.009766
861233.0,9.554688,-2.011719,-0.140625,-0.019531,0.011719,0.054688,-0.103516,0.027344,-0.011719
861257.0,9.59375,-2.050781,-0.140625,0.019531,-0.035156,0.007812,-0.103516,0.023438,-0.013672
861273.0,9.554688,-2.011719,-0.140625,-0.019531,-0.035156,0.007812,-0.095703,0.021484,-0.009766
861297.0,9.632812,-2.050781,-0.140625,0.058594,-0.042969,0.007812,-0.091797,0.017578,-0.011719
861313.0,9.554688,-2.011719,-0.140625,-0.019531,-0.003906,0.007812,-0.080078,0.017578,-0.011719
861334.0,9.554688,-2.085938,-0.101562,-0.019531,-0.078125,0.039062,-0.076172,0.011719,-0.013672
861376.0,9.515625,-1.972656,-0.140625,-0.058594,0.035156,0.007812,-0.078125,0.005859,-0.015625
861393.0,9.554688,-2.011719,-0.140625,0.019531,0.035156,-0.027344,-0.089844,0.007812,-0.017578
861414.0,9.597656,-2.011719,-0.175781,0.019531,-0.011719,-0.027344,-0.082031,0.011719,-0.017578
861433.0,9.558594,-1.972656,-0.214844,0.019531,-0.011719,-0.027344,-0.066406,0.013672,-0.015625
861447.0,9.59375,-1.972656,-0.214844,-0.027344,-0.011719,-0.066406,-0.064453,0.011719,-0.013672
861463.0,9.558594,-2.011719,-0.253906,0.011719,-0.019531,-0.058594,-0.044922,0.007812,-0.017578
861486.0,9.554688,-1.972656,-0.175781,-0.027344,0.027344,-0.019531,-0.039062,0.005859,-0.013672
861502.0,9.59375,-1.972656,-0.214844,-0.027344,-0.019531,-0.011719,-0.039062,0.003906,-0.013672
861526.0,9.554688,-1.972656,-0.175781,-0.027344,0.011719,-0.011719,-0.041016,0.007812,-0.013672
861543.0,9.597656,-1.972656,-0.175781,0.011719,0.011719,0.023438,-0.046875,0.007812,-0.017578
861566.0,9.59375,-1.972656,-0.214844,0.011719,0.003906,-0.042969,-0.037109,0.009766,-0.017578
861583.0,9.59375,-1.972656,-0.214844,0.050781,0.042969,-0.042969,-0.033203,0.013672,-0.013672
861597.0,9.59375,-1.972656,-0.214844,0.011719,-0.003906,-0.003906,-0.03125,0.011719,-0.015625
861613.0,9.597656,-1.972656,-0.175781,-0.027344,0.042969,-0.003906,-0.021484,0.011719,-0.011719
861644.0,9.597656,-1.972656,-0.140625,-0.027344,0.035156,0.003906,-0.005859,0.009766,-0.009766
861676.0,9.597656,-1.972656,-0.175781,0.011719,-0.003906,-0.003906,0.011719,0.001953,-0.009766
861693.0,9.554688,-1.972656,-0.140625,-0.035156,-0.003906,0.03125,0.013672,0.003906,-0.013672
861717.0,9.558594,-1.972656,-0.101562,-0.035156,-0.011719,0.070312,0.003906,0.001953,-0.011719
861733.0,9.558594,-1.933594,-0.140625,-0.027344,-0.011719,0.023438,0.005859,0.001953,-0.011719
861756.0,9.597656,-1.972656,-0.140625,0.003906,-0.019531,0.023438,0.0,-0.001953,-0.009766
861773.0,9.59375,-1.933594,-0.140625,0.003906,0.019531,0.023438,0.009766,-0.007812,-0.011719
861787.0,9.597656,-1.972656,-0.140625,0.019531,0.019531,-0.011719,0.017578,-0.005859,-0.011719
861802.0,9.59375,-1.933594,-0.140625,0.011719,-0.019531,-0.011719,0.015625,-0.007812,-0.011719
861826.0,9.597656,-1.972656,-0.175781,0.011719,-0.027344,-0.011719,0.011719,-0.007812,-0.011719
861843.0,9.59375,-1.972656,-0.214844,0.011719,-0.027344,-0.011719,0.017578,-0.005859,-0.009766
861865.0,9.59375,-1.933594,-0.175781,0.011719,0.011719,-0.011719,0.017578,-0.007812,-0.011719
861897.0,9.59375,-1.933594,-0.175781,0.003906,0.011719,-0.011719,0.019531,-0.001953,-0.011719
861913.0,9.59375,-1.933594,-0.175781,0.003906,0.003906,-0.011719,0.029297,-0.007812,-0.009766
861937.0,9.632812,-1.933594,-0.175781,0.003906,0.003906,-0.050781,0.035156,-0.005859,-0.009766
861952.0,9.558594,-1.933594,-0.140625,0.003906,0.042969,-0.011719,0.03125,-0.005859,-0.007812
861977.0,9.59375,-1.972656,-0.101562,0.003906,-0.035156,0.0625,0.029297,-0.009766,-0.007812
861992.0,9.597656,-1.933594,-0.101562,0.003906,-0.042969,0.023438,0.037109,-0.009766,-0.007812
862007.0,9.59375,-1.933594,-0.140625,0.003906,-0.003906,0.023438,0.037109,-0.017578,-0.011719
862023.0,9.558594,-1.933594,-0.140625,0.003906,0.035156,0.023438,0.025391,-0.013672,-0.007812
862056.0,9.632812,-1.933594,-0.140625,0.042969,-0.003906,0.023438,0.021484,-0.015625,-0.007812
862072.0,9.632812,-1.894531,-0.175781,0.003906,-0.003906,-0.011719,0.005859,-0.011719,-0.005859
862096.0,9.554688,-1.894531,-0.214844,-0.035156,0.035156,-0.050781,-0.003906,-0.003906,-0.009766
862113.0,9.59375,-1.933594,-0.175781,0.003906,-0.003906,-0.011719,-0.003906,-0.007812,-0.005859
862127.0,9.59375,-1.894531,-0.175781,0.003906,0.035156,-0.050781,0.003906,-0.007812,-0.005859
862152.0,9.59375,-1.894531,-0.175781,0.003906,0.027344,-0.042969,0.013672,-0.009766,-0.007812
862172.0,9.59375,-1.933594,-0.175781,-0.003906,-0.011719,0.003906,0.013672,-0.009766,-0.001953
862192.0,9.632812,-1.933594,-0.175781,-0.003906,-0.011719,0.039062,0.015625,-0.005859,-0.005859
862206.0,9.59375,-1.933594,-0.175781,0.035156,-0.011719,0.039062,0.013672,-0.005859,-0.007812
862223.0,9.632812,-1.933594,-0.175781,-0.003906,-0.019531,0.003906,0.005859,-0.003906,-0.009766
862252.0,9.59375,-1.894531,-0.175781,-0.003906,0.019531,0.003906,0.009766,-0.007812,-0.005859
862285.0,9.597656,-1.933594,-0.214844,-0.003906,-0.019531,-0.035156,0.019531,-0.003906,-0.007812
862316.0,9.558594,-1.933594,-0.140625,-0.042969,-0.019531,0.046875,0.023438,-0.003906,-0.005859
862333.0,9.59375,-1.933594,-0.140625,-0.003906,-0.019531,0.039062,0.029297,-0.007812,-0.005859
862363.0,9.59375,-1.894531,-0.175781,-0.003906,-0.019531,0.046875,0.015625,-0.011719,-0.009766
862396.0,9.59375,-1.933594,-0.175781,-0.003906,-0.019531,0.003906,0.015625,-0.011719,-0.007812
862412.0,9.59375,-1.933594,-0.140625,-0.035156,-0.019531,0.003906,0.017578,-0.015625,-0.005859
862436.0,9.636719,-1.855469,-0.175781,0.035156,0.050781,0.011719,0.019531,-0.019531,-0.007812
862452.0,9.632812,-1.894531,-0.175781,-0.042969,0.011719,0.011719,0.009766,-0.017578,-0.009766
862475.0,9.59375,-1.933594,-0.175781,-0.003906,-0.019531,0.003906,0.015625,-0.017578,-0.009766
862505.0,9.597656,-1.894531,-0.214844,-0.003906,0.011719,-0.027344,0.029297,-0.019531,-0.011719
862522.0,9.632812,-1.855469,-0.253906,-0.003906,0.050781,-0.027344,0.015625,-0.017578,-0.009766
862545.0,9.632812,-1.855469,-0.253906,0.035156,0.042969,-0.058594,0.019531,-0.011719,-0.011719
862555.0,9.597656,-1.894531,-0.253906,-0.003906,0.003906,-0.050781,0.021484,-0.009766,-0.009766
862572.0,9.597656,-1.894531,-0.253906,-0.003906,0.003906,-0.011719,0.017578,-0.007812,-0.007812
862592.0,9.597656,-1.894531,-0.214844,-0.003906,0.003906,-0.050781,0.013672,-0.009766,-0.007812
862625.0,9.597656,-1.894531,-0.214844,-0.003906,-0.003906,-0.003906,0.013672,-0.007812,-0.009766
862642.0,9.597656,-1.894531,-0.214844,0.035156,-0.003906,-0.003906,0.027344,-0.003906,-0.007812
862664.0,9.59375,-1.855469,-0.214844,-0.003906,0.027344,-0.003906,0.023438,-0.005859,-0.007812
862682.0,9.59375,-1.894531,-0.175781,-0.003906,0.027344,-0.003906,0.023438,-0.005859,-0.007812
862696.0,9.597656,-1.894531,-0.214844,-0.003906,-0.011719,0.035156,0.023438,-0.007812,-0.009766
862711.0,9.597656,-1.894531,-0.214844,-0.003906,-0.050781,0.035156,0.027344,-0.007812,-0.005859
862735.0,9.558594,-1.894531,-0.175781,-0.042969,-0.011719,0.035156,0.027344,-0.007812,-0.007812
862752.0,9.554688,-1.894531,-0.214844,-0.042969,0.027344,0.035156,0.029297,-0.009766,-0.005859
862774.0,9.632812,-1.855469,-0.214844,0.035156,0.027344,-0.003906,0.033203,-0.011719,-0.007812
862785.0,9.632812,-1.855469,-0.253906,0.035156,0.027344,-0.035156,0.046875,-0.009766,-0.009766
862815.0,9.636719,-1.894531,-0.253906,0.035156,-0.011719,-0.035156,0.050781,-0.007812,-0.007812
862832.0,9.632812,-1.855469,-0.253906,0.035156,-0.011719,-0.035156,0.041016,0.001953,-0.007812
862854.0,9.632812,-1.855469,-0.253906,0.035156,0.027344,-0.035156,0.013672,0.007812,-0.005859
862872.0,9.632812,-1.855469,-0.253906,-0.003906,0.027344,-0.042969,0.005859,0.011719,-0.007812
862886.0,9.632812,-1.855469,-0.253906,-0.003906,0.019531,0.003906,0.009766,0.015625,-0.007812
862902.0,9.632812,-1.855469,-0.253906,0.035156,0.019531,0.003906,0.003906,0.017578,-0.003906
862925.0,9.636719,-1.855469,-0.175781,0.027344,0.019531,0.035156,-0.001953,0.017578,-0.013672
862941.0,9.597656,-1.855469,-0.140625,-0.011719,0.011719,0.0625,-0.021484,0.015625,-0.015625
862964.0,9.59375,-1.855469,-0.101562,-0.011719,0.003906,0.101562,-0.025391,0.019531,-0.011719
862981.0,9.597656,-1.894531,-0.0625,-0.011719,0.003906,0.101562,-0.037109,0.003906,-0.011719
863005.0,9.558594,-1.855469,-0.0625,-0.050781,0.003906,0.132812,-0.019531,-0.003906,-0.013672
863021.0,9.554688,-1.742188,-0.0625,-0.050781,0.109375,0.132812,-0.027344,-0.015625,-0.017578
863044.0,9.597656,-1.78125,-0.101562,-0.011719,0.0625,0.085938,-0.099609,-0.003906,-0.017578
863075.0,9.554688,-1.894531,-0.0625,-0.050781,-0.058594,0.117188,-0.169922,0.003906,-0.023438
863092.0,9.597656,-2.050781,-0.101562,-0.011719,-0.136719,0.117188,-0.191406,-0.003906,-0.025391
863113.0,9.558594,-2.011719,-0.214844,-0.042969,-0.183594,-0.027344,-0.150391,-0.013672,-0.025391
863155.0,9.636719,-1.78125,-0.253906,0.035156,0.046875,-0.050781,-0.039062,-0.052734,-0.039062
863172.0,9.671875,-1.703125,-0.253906,0.066406,0.125,-0.050781,-0.054688,-0.050781,-0.048828
863193.0,9.636719,-1.894531,-0.214844,0.027344,-0.082031,0.003906,-0.105469,-0.042969,-0.046875
863226.0,9.515625,-1.933594,-0.332031,-0.089844,-0.121094,-0.089844,-0.095703,-0.050781,-0.042969
863241.0,9.671875,-1.972656,-0.175781,-0.011719,-0.207031,0.035156,0.056641,-0.087891,-0.072266
863264.0,9.484375,-1.972656,-0.214844,-0.125,-0.183594,0.058594,0.070312,-0.09375,-0.072266
863281.0,9.554688,-1.894531,-0.101562,-0.097656,-0.183594,0.066406,0.134766,-0.126953,-0.070312
863304.0,9.597656,-1.820312,-0.175781,-0.019531,-0.054688,0.136719,0.115234,-0.146484,-0.095703
863321.0,9.554688,-1.894531,-0.101562,-0.019531,-0.097656,0.179688,0.087891,-0.154297,-0.103516
863344.0,9.515625,-2.011719,-0.140625,-0.097656,-0.277344,0.21875,0.103516,-0.171875,-0.101562
863376.0,9.484375,-1.933594,-0.023438,-0.140625,-0.238281,0.398438,0.138672,-0.248047,-0.138672
863401.0,9.445312,-2.011719,-0.023438,-0.21875,-0.339844,0.445312,0.203125,-0.328125,-0.164062
863424.0,9.519531,-1.933594,-0.140625,-0.105469,-0.300781,0.421875,0.275391,-0.369141,-0.179688
863441.0,9.484375,-1.855469,-0.292969,-0.105469,-0.316406,0.371094,0.287109,-0.384766,-0.185547
863455.0,9.40625,-1.855469,-0.292969,-0.1875,-0.195312,0.28125,0.277344,-0.408203,-0.195312
863481.0,9.445312,-1.664062,-0.332031,-0.113281,-0.109375,0.351562,0.267578,-0.458984,-0.220703
863511.0,9.449219,-1.742188,-0.175781,-0.265625,-0.113281,0.550781,0.259766,-0.550781,-0.240234
863534.0,9.40625,-1.589844,-0.253906,-0.210938,-0.160156,0.738281,0.310547,-0.626953,-0.261719
863550.0,9.515625,-1.511719,-0.675781,-0.171875,-0.136719,0.679688,0.357422,-0.664062,-0.257812
863574.0,9.484375,-1.015625,-1.328125,-0.117188,0.335938,-0.101562,0.291016,-0.669922,-0.244141
863591.0,9.597656,-1.015625,-1.671875,-0.035156,0.351562,-0.230469,0.191406,-0.654297,-0.246094
863611.0,9.75,-0.863281,-2.015625,0.050781,0.390625,-0.539062,0.134766,-0.623047,-0.244141
863631.0,9.675781,-0.9375,-2.054688,0.179688,0.386719,-0.613281,-0.033203,-0.556641,-0.261719
863645.0,9.671875,-1.089844,-2.09375,0.148438,-0.085938,-0.542969,-0.095703,-0.527344,-0.267578
863661.0,9.714844,-1.359375,-2.359375,0.15625,-0.148438,-0.535156,-0.083984,-0.464844,-0.271484
863683.0,9.636719,-1.246094,-2.476562,0.089844,-0.152344,-0.671875,-0.0625,-0.439453,-0.269531
863701.0,9.515625,-1.128906,-2.628906,-0.019531,-0.144531,-0.707031,0.080078,-0.386719,-0.263672
863723.0,9.554688,-0.824219,-2.742188,0.035156,0.175781,-0.789062,0.154297,-0.382812,-0.259766
863740.0,9.59375,-0.59375,-2.78125,0.042969,0.316406,-0.757812,0.238281,-0.332031,-0.234375
863765.0,9.675781,-0.25,-2.742188,0.167969,0.679688,-0.671875,0.171875,-0.269531,-0.222656
863781.0,9.671875,-0.132812,-2.707031,0.203125,0.78125,-0.613281,0.097656,-0.197266,-0.179688
863795.0,9.714844,-0.171875,-2.78125,0.175781,0.632812,-0.695312,0.095703,-0.171875,-0.152344
863833.0,9.519531,-0.441406,-2.707031,0.027344,0.394531,-0.535156,0.128906,-0.111328,-0.134766
863873.0,9.59375,-0.515625,-2.589844,0.105469,0.296875,-0.394531,0.142578,-0.046875,-0.078125
863914.0,9.519531,-0.554688,-2.476562,0.027344,0.234375,-0.28125,-0.019531,0.042969,-0.039062
863931.0,9.488281,-0.667969,-2.476562,-0.007812,0.195312,-0.328125,0.039062,0.048828,-0.033203
863945.0,9.515625,-0.632812,-2.476562,0.066406,0.148438,-0.335938,0.074219,0.052734,-0.029297
863960.0,9.558594,-0.441406,-2.4375,0.058594,0.226562,-0.296875,0.083984,0.064453,-0.011719
863984.0,9.554688,-0.402344,-2.285156,0.050781,0.378906,-0.128906,0.060547,0.074219,-0.001953
864000.0,9.488281,-0.632812,-2.285156,0.011719,0.304688,-0.097656,-0.027344,0.101562,0.011719
864023.0,9.410156,-0.785156,-2.207031,-0.109375,-0.003906,-0.074219,-0.027344,0.107422,0.015625
864034.0,9.40625,-0.824219,-2.207031,-0.109375,-0.042969,-0.089844,-0.021484,0.099609,0.023438
864050.0,9.40625,-0.707031,-2.054688,-0.15625,0.042969,-0.019531,-0.017578,0.087891,0.025391
864065.0,9.445312,-0.667969,-1.976562,-0.078125,0.082031,0.191406,-0.019531,0.082031,0.021484
864080.0,9.488281,-0.667969,-1.863281,-0.078125,0.121094,0.222656,-0.039062,0.066406,0.023438
864104.0,9.558594,-0.746094,-1.824219,0.035156,0.050781,0.246094,-0.060547,0.046875,0.025391
864120.0,9.515625,-0.785156,-1.863281,-0.011719,0.050781,0.207031,-0.080078,0.03125,0.027344
864143.0,9.488281,-0.898438,-2.054688,-0.046875,-0.101562,0.015625,-0.082031,0.027344,0.025391
864160.0,9.484375,-0.898438,-2.09375,-0.046875,-0.101562,-0.03125,-0.052734,0.007812,0.017578
864175.0,9.445312,-0.863281,-2.09375,-0.046875,-0.027344,-0.066406,-0.035156,0.005859,0.019531
864190.0,9.554688,-0.746094,-2.09375,-0.011719,-0.027344,-0.066406,-0.029297,0.003906,0.017578
864214.0,9.488281,-0.746094,-2.128906,-0.046875,0.050781,-0.066406,-0.025391,0.003906,0.023438
864235.0,9.515625,-0.746094,-2.128906,-0.011719,0.058594,-0.105469,-0.013672,0.001953,0.023438
864261.0,9.554688,-0.667969,-2.207031,0.074219,0.097656,-0.175781,-0.023438,0.015625,0.023438
864293.0,9.515625,-0.632812,-2.09375,-0.003906,0.171875,-0.03125,-0.048828,0.015625,0.037109
864310.0,9.484375,-0.632812,-2.015625,-0.003906,0.171875,-0.03125,-0.046875,0.011719,0.041016
864333.0,9.558594,-0.746094,-2.054688,0.035156,0.074219,0.007812,-0.058594,0.007812,0.044922
864350.0,9.554688,-0.785156,-2.09375,0.035156,0.074219,0.0,-0.083984,0.003906,0.044922
864365.0,9.558594,-0.707031,-2.054688,-0.039062,0.152344,0.054688,-0.103516,0.005859,0.048828
864390.0,9.519531,-0.785156,-2.015625,-0.039062,0.082031,0.054688,-0.130859,-0.001953,0.058594
864405.0,9.554688,-0.785156,-1.9375,-0.03125,-0.164062,0.152344,-0.125,-0.009766,0.058594
864420.0,9.554688,-0.9375,-1.863281,-0.03125,-0.195312,0.152344,-0.101562,-0.039062,0.052734
864443.0,9.519531,-0.824219,-1.59375,0.003906,-0.066406,0.460938,-0.089844,-0.056641,0.056641
864483.0,9.753906,-1.128906,-1.210938,0.242188,-0.339844,0.851562,-0.113281,-0.162109,0.056641
864499.0,9.597656,-1.207031,-1.058594,0.175781,-0.378906,0.996094,-0.021484,-0.314453,0.060547
864524.0,9.871094,-1.167969,-0.75,0.382812,-0.363281,1.421875,0.009766,-0.445312,0.056641
864540.0,10.4375,-1.015625,-0.675781,0.742188,-0.25,1.476562,0.080078,-0.578125,0.021484
864553.0,10.441406,-0.976562,-0.75,1.148438,-0.117188,1.5,0.152344,-0.648438,0.005859
864593.0,10.902344,-0.746094,-1.441406,1.515625,0.089844,1.136719,0.167969,-0.789062,-0.046875
864610.0,10.9375,-0.363281,-2.054688,1.539062,0.167969,0.945312,0.257812,-0.841797,-0.041016
864633.0,10.824219,0.824219,-2.515625,1.527344,1.675781,0.359375,0.367188,-0.865234,0.009766
864650.0,10.363281,0.9375,-3.050781,1.398438,1.84375,0.210938,0.3125,-0.826172,0.050781
864673.0,9.171875,0.785156,-4.199219,-0.027344,1.683594,-1.042969,0.392578,-0.769531,-0.009766
864689.0,8.523438,1.167969,-4.851562,-0.386719,1.816406,-1.449219,0.738281,-0.775391,-0.089844
864712.0,8.101562,2.089844,-5.234375,-1.011719,3.050781,-1.835938,0.945312,-0.683594,-0.175781
864730.0,7.523438,1.859375,-4.238281,-1.265625,3.019531,-1.023438,0.773438,-0.492188,-0.351562
864745.0,7.417969,1.511719,-4.199219,-1.625,2.082031,-0.460938,0.773438,-0.376953,-0.457031
864760.0,7.605469,0.710938,-3.929688,-1.503906,1.800781,-0.132812,0.951172,-0.039062,-0.570312
864772.0,7.644531,0.746094,-4.007812,-1.433594,1.644531,-0.492188,0.972656,0.126953,-0.578125
864823.0,8.449219,0.863281,-3.050781,-0.761719,1.535156,0.160156,0.085938,1.021484,-0.669922
864840.0,9.097656,-0.09375,-3.089844,-0.417969,0.972656,0.136719,0.064453,1.185547,-0.626953
864854.0,9.292969,-0.554688,-3.125,0.0,-0.5625,-0.199219,0.146484,1.224609,-0.607422
864879.0,9.175781,-1.855469,-2.742188,-0.222656,-1.304688,-0.195312,0.716797,1.130859,-0.546875
864903.0,9.023438,-1.28125,-2.476562,-0.460938,-0.992188,-0.132812,1.005859,0.919922,-0.509766
864920.0,9.132812,-0.9375,-2.359375,-0.445312,-0.824219,-0.210938,0.943359,0.701172,-0.457031
864934.0,9.136719,-0.976562,-2.167969,-0.476562,-0.878906,0.070312,0.830078,0.611328,-0.425781
864952.0,8.679688,-1.742188,-1.710938,-0.882812,-1.578125,0.3125,0.582031,0.435547,-0.367188
864974.0,8.332031,-2.316406,-1.746094,-1.089844,-2.160156,0.214844,0.681641,0.185547,-0.308594
865011.0,8.871094,-0.554688,-2.054688,-0.699219,-0.46875,-0.09375,0.947266,-0.146484,-0.228516
865053.0,10.136719,-2.625,-0.445312,0.609375,-2.5,1.671875,-0.068359,-0.355469,0.400391
865069.0,9.410156,-4.578125,-1.632812,0.113281,-3.554688,0.667969,-0.175781,-0.267578,0.947266
865093.0,11.511719,-0.324219,-1.058594,2.027344,0.128906,1.183594,0.21875,-0.451172,1.009766
865110.0,12.695312,0.441406,-2.359375,3.683594,2.933594,0.839844,-0.119141,-0.382812,0.583984
