Time,ax,ay,az,lax,lay,laz,gx,gy,gz
16775.0,-6.644531,-6.617188,2.21875,-0.023438,0.054688,-0.054688,0.009766,0.009766,-0.003906
16806.0,-6.679688,-6.695312,2.332031,-0.054688,0.015625,0.105469,-0.027344,-0.005859,0.0
16828.0,-6.605469,-6.804688,2.292969,0.027344,-0.097656,0.058594,-0.023438,-0.007812,-0.003906
16845.0,-6.605469,-6.765625,2.257812,0.027344,-0.097656,0.058594,0.021484,0.003906,-0.003906
16869.0,-6.640625,-6.695312,2.21875,-0.015625,0.015625,-0.023438,0.025391,-0.001953,0.003906
16886.0,-6.640625,-6.660156,2.257812,0.027344,0.015625,0.007812,0.025391,-0.007812,0.005859
16908.0,-6.640625,-6.65625,2.179688,-0.007812,0.054688,-0.078125,0.013672,-0.003906,0.0
16926.0,-6.683594,-6.617188,2.257812,-0.007812,0.054688,-0.039062,-0.009766,-0.007812,-0.005859
16948.0,-6.640625,-6.660156,2.21875,-0.007812,0.054688,-0.03125,-0.011719,-0.003906,0.005859
16965.0,-6.605469,-6.765625,2.21875,0.027344,0.015625,-0.070312,-0.023438,-0.005859,-0.003906
16997.0,-6.605469,-6.730469,2.257812,0.019531,-0.019531,0.015625,-0.017578,-0.005859,-0.005859
17019.0,-6.605469,-6.695312,2.257812,0.019531,-0.019531,-0.023438,-0.001953,-0.001953,-0.003906
17035.0,-6.605469,-6.765625,2.257812,0.058594,-0.019531,0.015625,-0.001953,0.001953,-0.005859
17060.0,-6.566406,-6.695312,2.21875,0.058594,0.015625,-0.023438,0.001953,0.005859,-0.003906
17075.0,-6.605469,-6.699219,2.179688,0.011719,0.015625,-0.03125,0.001953,0.003906,-0.005859
17099.0,-6.640625,-6.730469,2.257812,-0.023438,-0.011719,0.015625,-0.013672,0.005859,-0.009766
17115.0,-6.605469,-6.804688,2.292969,-0.023438,-0.050781,0.050781,-0.025391,-0.001953,-0.017578
17139.0,-6.566406,-6.730469,2.257812,0.050781,-0.003906,0.023438,0.0,0.007812,-0.011719
17156.0,-6.527344,-6.769531,2.257812,0.050781,-0.042969,0.023438,0.027344,0.011719,0.0
17179.0,-6.605469,-6.695312,2.292969,0.003906,0.03125,0.050781,0.023438,0.009766,-0.005859
17195.0,-6.640625,-6.660156,2.292969,-0.03125,0.070312,0.050781,0.009766,0.005859,-0.007812
17219.0,-6.71875,-6.617188,2.21875,-0.109375,0.117188,-0.03125,-0.011719,0.003906,-0.001953
17236.0,-6.679688,-6.695312,2.257812,-0.109375,0.117188,-0.03125,-0.017578,0.001953,0.009766
17259.0,-6.679688,-6.765625,2.257812,-0.0625,-0.050781,0.015625,-0.011719,-0.001953,0.003906
17276.0,-6.605469,-6.765625,2.257812,-0.0625,-0.042969,0.015625,-0.009766,-0.003906,0.0
17290.0,-6.640625,-6.765625,2.257812,0.011719,-0.003906,-0.023438,-0.009766,-0.005859,-0.003906
17306.0,-6.566406,-6.730469,2.21875,0.011719,-0.003906,0.015625,-0.015625,-0.005859,-0.003906
17329.0,-6.566406,-6.730469,2.21875,0.050781,-0.003906,-0.023438,0.005859,0.0,-0.003906
17346.0,-6.605469,-6.730469,2.257812,0.011719,-0.003906,0.015625,0.019531,0.003906,-0.003906
17369.0,-6.640625,-6.695312,2.257812,-0.023438,0.03125,0.015625,0.005859,0.003906,0.0
17385.0,-6.640625,-6.695312,2.257812,-0.023438,0.070312,-0.023438,-0.017578,-0.001953,0.001953
17409.0,-6.640625,-6.730469,2.257812,-0.023438,-0.003906,0.015625,-0.023438,-0.005859,0.001953
17426.0,-6.605469,-6.765625,2.21875,0.011719,-0.042969,0.015625,-0.005859,-0.005859,0.003906
17450.0,-6.566406,-6.765625,2.21875,0.050781,-0.042969,-0.023438,0.001953,0.003906,0.003906
17466.0,-6.605469,-6.726562,2.179688,0.050781,-0.003906,-0.023438,0.009766,0.005859,-0.007812
17481.0,-6.605469,-6.695312,2.21875,0.011719,0.03125,-0.023438,0.009766,0.005859,-0.005859
17520.0,-6.640625,-6.730469,2.257812,-0.023438,-0.003906,0.015625,-0.011719,0.0,-0.007812
17536.0,-6.640625,-6.765625,2.257812,0.011719,-0.042969,-0.023438,-0.009766,0.0,-0.003906
17560.0,-6.640625,-6.730469,2.292969,-0.023438,0.003906,0.050781,-0.005859,0.0,-0.001953
17577.0,-6.605469,-6.730469,2.292969,0.011719,0.011719,0.023438,-0.001953,0.003906,0.0
17598.0,-6.605469,-6.730469,2.21875,0.003906,0.003906,-0.015625,0.001953,0.001953,0.0
17640.0,-6.605469,-6.726562,2.179688,0.003906,0.003906,-0.0625,-0.001953,-0.001953,-0.003906
17678.0,-6.605469,-6.765625,2.257812,0.003906,-0.027344,0.023438,-0.009766,0.001953,-0.009766
17720.0,-6.566406,-6.765625,2.257812,0.042969,-0.027344,0.023438,0.017578,0.007812,-0.011719
17737.0,-6.566406,-6.730469,2.21875,0.035156,-0.027344,-0.015625,0.025391,0.009766,-0.009766
17767.0,-6.605469,-6.695312,2.21875,-0.003906,0.054688,-0.0625,0.027344,0.009766,-0.001953
17790.0,-6.683594,-6.617188,2.257812,-0.085938,0.125,0.023438,0.013672,0.007812,-0.003906
17807.0,-6.683594,-6.65625,2.257812,-0.046875,0.085938,0.023438,-0.017578,0.0,-0.009766
17829.0,-6.605469,-6.730469,2.257812,-0.003906,0.003906,0.023438,-0.023438,-0.003906,-0.007812
17846.0,-6.605469,-6.730469,2.21875,-0.003906,0.003906,-0.015625,-0.017578,-0.005859,0.001953
17869.0,-6.605469,-6.765625,2.257812,-0.003906,-0.035156,0.03125,-0.009766,-0.003906,0.003906
17909.0,-6.605469,-6.695312,2.257812,-0.003906,0.039062,0.023438,0.007812,0.001953,0.001953
17927.0,-6.566406,-6.730469,2.257812,0.035156,0.046875,0.058594,-0.017578,-0.001953,0.003906
17951.0,-6.605469,-6.765625,2.21875,-0.003906,-0.035156,-0.015625,-0.009766,0.001953,-0.003906
17967.0,-6.640625,-6.765625,2.257812,-0.003906,-0.035156,-0.023438,0.0,0.0,-0.001953
17982.0,-6.640625,-6.765625,2.257812,-0.039062,0.003906,0.015625,0.0,-0.003906,-0.003906
18021.0,-6.605469,-6.730469,2.257812,-0.003906,0.003906,-0.023438,0.001953,0.003906,0.003906
18037.0,-6.605469,-6.730469,2.21875,-0.039062,-0.035156,-0.023438,-0.005859,0.003906,0.0
18059.0,-6.605469,-6.730469,2.21875,-0.003906,0.011719,-0.015625,-0.005859,0.0,0.001953
18101.0,-6.605469,-6.730469,2.21875,-0.003906,0.011719,-0.015625,0.0,0.001953,-0.005859
18117.0,-6.640625,-6.730469,2.257812,-0.039062,-0.035156,0.03125,0.0,-0.001953,-0.003906
18140.0,-6.640625,-6.730469,2.257812,-0.03125,0.003906,0.03125,-0.003906,-0.001953,-0.003906
18157.0,-6.605469,-6.730469,2.21875,-0.03125,0.011719,0.03125,-0.011719,0.0,-0.003906
18180.0,-6.605469,-6.765625,2.21875,0.003906,-0.027344,-0.007812,-0.003906,-0.003906,0.0
18198.0,-6.605469,-6.730469,2.257812,0.003906,-0.027344,-0.007812,-0.005859,-0.005859,0.003906
18228.0,-6.566406,-6.730469,2.257812,0.042969,0.011719,-0.007812,-0.003906,0.005859,-0.005859
18251.0,-6.566406,-6.730469,2.257812,0.035156,0.011719,0.03125,0.003906,0.005859,-0.005859
18268.0,-6.605469,-6.695312,2.257812,-0.003906,0.011719,-0.007812,-0.003906,-0.001953,-0.005859
18291.0,-6.640625,-6.765625,2.257812,-0.039062,-0.027344,0.03125,-0.005859,-0.005859,-0.003906
18307.0,-6.605469,-6.765625,2.21875,-0.039062,0.011719,0.03125,-0.001953,0.003906,0.0
18330.0,-6.605469,-6.765625,2.21875,-0.003906,-0.019531,-0.007812,-0.001953,0.009766,0.0
18348.0,-6.566406,-6.730469,2.21875,0.035156,-0.019531,0.03125,0.0,0.0,0.001953
18370.0,-6.605469,-6.765625,2.21875,-0.003906,-0.019531,-0.007812,0.0,0.0,-0.003906
18410.0,-6.605469,-6.730469,2.257812,-0.003906,0.011719,0.03125,0.005859,0.005859,0.0
18427.0,-6.566406,-6.765625,2.21875,-0.003906,0.011719,-0.007812,-0.003906,0.001953,-0.003906
18450.0,-6.640625,-6.730469,2.21875,-0.039062,0.019531,-0.007812,-0.001953,0.003906,-0.001953
18468.0,-6.605469,-6.730469,2.21875,-0.003906,0.019531,0.03125,-0.001953,-0.001953,0.0
18490.0,-6.605469,-6.730469,2.257812,-0.003906,0.019531,0.03125,-0.001953,-0.001953,0.001953
18522.0,-6.605469,-6.730469,2.257812,-0.003906,0.011719,0.03125,0.005859,-0.001953,0.003906
18538.0,-6.605469,-6.730469,2.21875,-0.003906,0.011719,-0.007812,-0.001953,-0.007812,0.001953
18561.0,-6.605469,-6.730469,2.21875,-0.003906,0.011719,-0.007812,-0.005859,-0.001953,0.001953
18578.0,-6.605469,-6.769531,2.179688,0.035156,0.011719,-0.046875,-0.007812,-0.003906,-0.001953
18600.0,-6.605469,-6.765625,2.257812,-0.003906,-0.027344,0.03125,-0.009766,-0.001953,0.0
18641.0,-6.605469,-6.695312,2.21875,-0.003906,0.046875,-0.007812,0.015625,0.0,0.001953
18658.0,-6.605469,-6.695312,2.21875,-0.003906,0.054688,-0.007812,0.009766,0.001953,0.003906
18689.0,-6.640625,-6.765625,2.21875,-0.003906,0.011719,-0.015625,-0.011719,-0.003906,0.0
18720.0,-6.566406,-6.730469,2.21875,0.035156,0.011719,-0.015625,-0.013672,-0.007812,-0.005859
18752.0,-6.566406,-6.765625,2.257812,0.035156,-0.027344,0.023438,0.009766,0.001953,0.001953
18769.0,-6.640625,-6.765625,2.292969,-0.039062,-0.019531,0.03125,0.017578,0.009766,0.0
18792.0,-6.640625,-6.695312,2.21875,-0.039062,0.046875,-0.015625,0.017578,0.001953,-0.003906
18809.0,-6.605469,-6.660156,2.21875,-0.039062,0.09375,0.023438,-0.013672,-0.005859,-0.001953
18831.0,-6.605469,-6.765625,2.21875,-0.011719,-0.027344,-0.015625,-0.017578,-0.003906,-0.003906
18848.0,-6.566406,-6.765625,2.21875,-0.003906,-0.027344,-0.015625,0.0,0.0,0.0
18872.0,-6.566406,-6.769531,2.179688,0.035156,-0.019531,-0.046875,0.005859,0.001953,-0.003906
18889.0,-6.566406,-6.695312,2.21875,0.035156,0.019531,-0.007812,-0.001953,0.001953,-0.005859
18911.0,-6.566406,-6.730469,2.21875,0.027344,0.019531,-0.015625,-0.007812,0.0,-0.003906
18928.0,-6.605469,-6.765625,2.21875,0.027344,-0.027344,0.03125,-0.009766,0.0,-0.011719
18951.0,-6.605469,-6.765625,2.257812,-0.011719,-0.019531,0.03125,-0.003906,-0.001953,-0.007812
18969.0,-6.605469,-6.730469,2.257812,-0.011719,0.019531,0.03125,0.007812,0.003906,0.0
18983.0,-6.640625,-6.730469,2.21875,-0.046875,0.011719,0.023438,0.003906,0.003906,-0.003906
19023.0,-6.566406,-6.730469,2.21875,0.027344,0.019531,-0.015625,-0.011719,0.0,0.0
19039.0,-6.566406,-6.765625,2.257812,0.027344,-0.019531,-0.054688,-0.009766,0.001953,-0.001953
19060.0,-6.605469,-6.769531,2.179688,-0.011719,-0.019531,-0.046875,-0.009766,0.001953,-0.003906
19072.0,-6.605469,-6.765625,2.21875,-0.011719,-0.019531,-0.007812,-0.001953,0.001953,-0.003906
19102.0,-6.679688,-6.808594,2.179688,-0.085938,-0.058594,-0.046875,-0.005859,-0.001953,-0.001953
19119.0,-6.640625,-6.765625,2.257812,-0.046875,-0.011719,-0.007812,-0.005859,-0.007812,0.0
19141.0,-6.605469,-6.730469,2.257812,-0.011719,0.027344,0.03125,-0.007812,-0.003906,0.0
19182.0,-6.566406,-6.808594,2.179688,0.027344,-0.050781,-0.039062,-0.005859,0.0,0.001953
19199.0,-6.605469,-6.769531,2.140625,-0.011719,-0.011719,-0.039062,0.001953,0.001953,0.005859
19222.0,-6.605469,-6.769531,2.179688,-0.011719,-0.011719,-0.039062,0.0,0.0,0.003906
19239.0,-6.605469,-6.730469,2.257812,-0.003906,-0.011719,-0.039062,-0.005859,-0.003906,-0.005859
19260.0,-6.605469,-6.804688,2.257812,-0.003906,-0.003906,0.046875,-0.017578,-0.003906,-0.005859
19279.0,-6.566406,-6.808594,2.179688,-0.003906,-0.042969,0.046875,-0.009766,0.0,-0.003906
19294.0,-6.566406,-6.769531,2.140625,-0.011719,-0.003906,-0.03125,-0.001953,0.0,-0.003906
19310.0,-6.605469,-6.765625,2.21875,0.027344,-0.003906,0.046875,0.007812,-0.003906,0.003906
19332.0,-6.566406,-6.730469,2.21875,0.027344,0.035156,0.007812,0.005859,-0.001953,0.005859
19342.0,-6.605469,-6.730469,2.21875,-0.011719,0.035156,0.007812,0.001953,0.0,0.001953
19360.0,-6.605469,-6.769531,2.179688,-0.011719,0.035156,-0.03125,-0.011719,-0.005859,0.0
19379.0,-6.566406,-6.769531,2.179688,-0.011719,-0.003906,0.007812,-0.013672,-0.009766,0.001953
19404.0,-6.605469,-6.804688,2.21875,-0.011719,-0.042969,0.007812,-0.009766,-0.005859,0.0
19430.0,-6.605469,-6.769531,2.179688,0.019531,-0.003906,0.007812,-0.011719,0.001953,0.0
19452.0,-6.566406,-6.804688,2.21875,0.019531,-0.035156,0.015625,-0.011719,0.0,0.001953
19469.0,-6.566406,-6.769531,2.179688,0.027344,0.003906,0.054688,-0.001953,-0.003906,0.003906
19484.0,-6.566406,-6.765625,2.21875,0.027344,-0.035156,-0.023438,0.003906,-0.001953,0.003906
19510.0,-6.605469,-6.769531,2.179688,-0.011719,0.003906,0.015625,-0.003906,0.0,-0.003906
19524.0,-6.640625,-6.769531,2.179688,-0.046875,0.003906,-0.023438,-0.003906,-0.001953,-0.005859
19540.0,-6.605469,-6.730469,2.21875,-0.011719,0.003906,-0.023438,0.0,0.001953,0.007812
19563.0,-6.566406,-6.765625,2.21875,0.027344,0.003906,0.015625,0.005859,0.001953,0.007812
19580.0,-6.605469,-6.765625,2.257812,-0.011719,0.003906,-0.023438,0.011719,0.001953,0.001953
19602.0,-6.640625,-6.730469,2.21875,-0.046875,0.042969,0.015625,0.001953,0.003906,0.0
19643.0,-6.566406,-6.726562,2.179688,0.027344,0.042969,-0.023438,0.0,0.0,0.005859
19661.0,-6.566406,-6.726562,2.179688,-0.011719,0.042969,-0.0625,-0.001953,0.0,0.005859
19691.0,-6.605469,-6.765625,2.21875,-0.011719,0.035156,0.015625,-0.013672,-0.005859,-0.003906
19723.0,-6.566406,-6.769531,2.179688,0.027344,-0.011719,-0.015625,-0.015625,0.0,-0.001953
19740.0,-6.566406,-6.765625,2.21875,0.027344,-0.003906,0.023438,-0.007812,0.001953,-0.001953
19755.0,-6.566406,-6.769531,2.179688,-0.011719,-0.003906,-0.015625,-0.001953,0.001953,-0.003906
19769.0,-6.605469,-6.765625,2.21875,-0.011719,-0.003906,0.023438,0.0,0.0,0.001953
19793.0,-6.605469,-6.765625,2.21875,-0.011719,-0.003906,0.023438,-0.005859,-0.003906,0.003906
19810.0,-6.605469,-6.769531,2.179688,-0.019531,0.035156,0.0625,-0.003906,-0.001953,0.003906
19833.0,-6.605469,-6.695312,2.257812,-0.019531,0.070312,0.0625,-0.005859,0.0,0.007812
19850.0,-6.605469,-6.765625,2.257812,-0.011719,0.027344,0.089844,-0.019531,-0.003906,0.0
19873.0,-6.640625,-6.765625,2.292969,-0.046875,-0.003906,0.089844,-0.021484,-0.003906,0.0
19913.0,-6.527344,-6.847656,2.140625,0.074219,-0.089844,-0.0625,0.0,0.003906,0.015625
19953.0,-6.605469,-6.804688,2.257812,-0.003906,-0.050781,0.046875,-0.003906,-0.003906,-0.003906
19970.0,-6.566406,-6.765625,2.21875,0.035156,-0.003906,0.046875,-0.003906,0.003906,0.001953
19984.0,-6.566406,-6.730469,2.21875,-0.003906,-0.003906,0.015625,0.011719,0.003906,0.005859
20000.0,-6.605469,-6.765625,2.21875,-0.003906,-0.011719,0.007812,0.027344,0.0,0.005859
20025.0,-6.605469,-6.726562,2.179688,-0.003906,0.035156,-0.03125,0.027344,-0.001953,0.011719
20040.0,-6.605469,-6.726562,2.179688,-0.003906,0.070312,-0.039062,0.017578,0.0,0.007812
20064.0,-6.605469,-6.699219,2.179688,-0.003906,0.054688,-0.039062,-0.009766,-0.001953,0.007812
20081.0,-6.605469,-6.769531,2.179688,-0.003906,0.019531,-0.039062,-0.021484,-0.005859,0.003906
20104.0,-6.566406,-6.804688,2.21875,0.042969,-0.050781,0.007812,0.0,0.001953,0.003906
20120.0,-6.566406,-6.769531,2.179688,0.042969,-0.050781,-0.03125,0.025391,0.005859,0.005859
20144.0,-6.605469,-6.699219,2.179688,0.003906,0.0625,-0.03125,0.025391,0.003906,0.001953
20161.0,-6.640625,-6.660156,2.21875,-0.039062,0.101562,0.046875,0.003906,0.003906,0.005859
20184.0,-6.605469,-6.699219,2.140625,-0.003906,0.054688,-0.070312,-0.009766,0.003906,0.007812
20201.0,-6.605469,-6.726562,2.140625,-0.003906,0.011719,-0.070312,0.001953,0.001953,0.003906
20216.0,-6.605469,-6.726562,2.140625,-0.003906,0.011719,-0.023438,0.001953,0.0,0.003906
20254.0,-6.605469,-6.730469,2.21875,-0.003906,0.011719,0.015625,-0.013672,-0.001953,0.001953
20271.0,-6.605469,-6.804688,2.257812,-0.003906,0.011719,0.015625,-0.013672,-0.003906,0.001953
20293.0,-6.640625,-6.765625,2.21875,-0.039062,-0.027344,0.015625,0.001953,-0.001953,0.001953
20304.0,-6.605469,-6.765625,2.21875,-0.003906,-0.027344,0.015625,0.017578,0.0,0.005859
20334.0,-6.605469,-6.730469,2.21875,0.003906,0.011719,0.015625,0.019531,-0.003906,0.011719
20364.0,-6.640625,-6.695312,2.21875,-0.03125,0.039062,0.007812,0.005859,-0.001953,0.003906
20381.0,-6.640625,-6.699219,2.179688,-0.070312,0.039062,-0.03125,0.001953,-0.001953,0.003906
20414.0,-6.640625,-6.730469,2.21875,-0.023438,-0.003906,0.007812,0.003906,-0.005859,0.003906
20446.0,-6.605469,-6.730469,2.21875,0.011719,-0.003906,-0.039062,-0.003906,0.0,0.001953
20485.0,-6.566406,-6.699219,2.179688,0.050781,0.03125,-0.039062,0.007812,-0.001953,-0.003906
20502.0,-6.605469,-6.695312,2.21875,0.050781,0.070312,0.0,-0.001953,-0.001953,-0.003906
20525.0,-6.640625,-6.695312,2.21875,-0.03125,0.023438,0.007812,-0.011719,-0.007812,-0.005859
20541.0,-6.640625,-6.695312,2.21875,-0.03125,0.03125,0.007812,-0.011719,-0.003906,-0.001953
20565.0,-6.640625,-6.765625,2.257812,-0.03125,-0.050781,0.046875,-0.005859,-0.007812,-0.003906
20582.0,-6.640625,-6.765625,2.257812,-0.03125,-0.042969,0.007812,-0.005859,-0.003906,-0.001953
20603.0,-6.527344,-6.804688,2.140625,0.082031,-0.082031,-0.078125,-0.003906,-0.001953,0.0
20644.0,-6.605469,-6.695312,2.257812,0.003906,0.039062,0.039062,0.019531,0.007812,-0.007812
20662.0,-6.605469,-6.695312,2.257812,0.003906,0.039062,0.039062,0.005859,0.003906,-0.009766
20692.0,-6.640625,-6.730469,2.21875,-0.039062,0.003906,0.074219,-0.001953,0.0,-0.007812
20715.0,-6.605469,-6.730469,2.257812,-0.003906,0.011719,0.039062,-0.001953,0.0,0.0
20732.0,-6.605469,-6.730469,2.257812,0.035156,0.011719,0.039062,-0.001953,-0.001953,0.0
20754.0,-6.605469,-6.730469,2.21875,-0.003906,0.011719,-0.007812,0.0,-0.007812,-0.003906
20764.0,-6.605469,-6.730469,2.257812,-0.003906,0.011719,0.03125,-0.003906,-0.003906,-0.007812
20782.0,-6.605469,-6.726562,2.179688,0.035156,-0.035156,-0.015625,0.001953,0.0,-0.003906
20802.0,-6.605469,-6.730469,2.21875,0.035156,0.003906,-0.054688,0.005859,0.001953,0.0
20822.0,-6.605469,-6.730469,2.257812,-0.003906,0.003906,-0.015625,-0.001953,0.003906,0.001953
20842.0,-6.605469,-6.730469,2.21875,-0.003906,0.003906,-0.015625,-0.009766,0.001953,0.001953
20874.0,-6.566406,-6.765625,2.21875,0.027344,-0.027344,-0.007812,-0.017578,0.001953,-0.003906
20914.0,-6.566406,-6.765625,2.257812,0.027344,-0.019531,0.039062,-0.015625,0.0,-0.007812
20947.0,-6.605469,-6.804688,2.21875,0.027344,-0.050781,0.0,0.005859,0.007812,-0.003906
20984.0,-6.640625,-6.695312,2.257812,-0.054688,0.054688,0.03125,0.017578,0.007812,-0.003906
21012.0,-6.566406,-6.769531,2.179688,0.019531,-0.019531,-0.007812,-0.019531,0.001953,-0.003906
21026.0,-6.605469,-6.769531,2.179688,-0.019531,-0.011719,-0.039062,-0.011719,0.003906,-0.007812
21042.0,-6.605469,-6.769531,2.179688,-0.027344,-0.011719,-0.039062,0.013672,0.009766,0.0
21066.0,-6.566406,-6.695312,2.21875,0.019531,0.0625,0.0,0.005859,0.003906,0.003906
21082.0,-6.566406,-6.730469,2.21875,0.019531,0.027344,0.0,-0.003906,0.005859,0.003906
21106.0,-6.640625,-6.695312,2.21875,-0.054688,0.0625,0.0,-0.005859,0.003906,-0.001953
21122.0,-6.640625,-6.695312,2.101562,-0.09375,0.101562,-0.078125,-0.025391,0.007812,0.003906
21145.0,-6.640625,-6.804688,2.21875,-0.046875,-0.050781,0.007812,-0.037109,0.003906,0.0
21162.0,-6.605469,-6.808594,2.179688,-0.046875,-0.050781,0.015625,-0.011719,0.0,0.001953
21185.0,-6.640625,-6.769531,2.179688,-0.054688,-0.011719,-0.023438,-0.007812,0.009766,-0.005859
21202.0,-6.605469,-6.769531,2.179688,-0.019531,-0.011719,-0.015625,-0.001953,0.005859,0.001953
21222.0,-6.566406,-6.804688,2.21875,0.027344,-0.011719,-0.007812,-0.001953,0.009766,-0.003906
21243.0,-6.566406,-6.726562,2.179688,0.027344,-0.011719,-0.007812,-0.001953,0.007812,0.001953
21257.0,-6.566406,-6.726562,2.179688,0.027344,0.027344,-0.007812,-0.001953,0.009766,0.001953
21295.0,-6.566406,-6.769531,2.179688,0.027344,-0.011719,-0.007812,0.003906,0.013672,0.001953
21312.0,-6.605469,-6.769531,2.179688,0.027344,-0.050781,-0.007812,0.019531,0.015625,0.001953
21336.0,-6.566406,-6.765625,2.21875,0.027344,-0.011719,0.03125,0.009766,0.015625,0.0
21353.0,-6.566406,-6.808594,2.179688,0.027344,-0.011719,0.03125,0.015625,0.013672,-0.003906
21375.0,-6.605469,-6.765625,2.257812,-0.011719,-0.003906,0.078125,0.021484,0.017578,-0.005859
21403.0,-6.640625,-6.730469,2.21875,-0.039062,0.035156,0.070312,0.035156,0.007812,-0.003906
21423.0,-6.683594,-6.617188,2.21875,-0.078125,0.101562,-0.015625,0.033203,-0.001953,0.005859
21445.0,-6.683594,-6.65625,2.21875,-0.078125,0.101562,0.015625,0.013672,-0.005859,0.005859
21487.0,-6.605469,-6.769531,2.140625,-0.003906,-0.019531,-0.0625,-0.013672,-0.003906,0.003906
21503.0,-6.605469,-6.769531,2.179688,-0.003906,-0.019531,-0.0625,-0.005859,-0.001953,0.001953
21524.0,-6.605469,-6.769531,2.179688,0.003906,-0.019531,-0.015625,-0.009766,-0.005859,0.001953
21567.0,-6.605469,-6.730469,2.21875,0.003906,0.019531,0.023438,0.005859,0.005859,-0.003906
21583.0,-6.640625,-6.730469,2.257812,-0.03125,0.019531,0.0625,-0.005859,-0.007812,0.0
21604.0,-6.605469,-6.730469,2.21875,0.003906,0.019531,0.023438,-0.009766,-0.007812,0.0
21644.0,-6.566406,-6.726562,2.179688,0.042969,0.019531,-0.015625,0.001953,-0.003906,-0.003906
21686.0,-6.605469,-6.730469,2.21875,0.003906,0.019531,0.023438,0.0,0.0,-0.003906
21703.0,-6.605469,-6.769531,2.179688,0.003906,-0.019531,-0.054688,0.001953,0.001953,-0.003906
21724.0,-6.605469,-6.730469,2.21875,-0.003906,0.019531,-0.015625,-0.001953,-0.001953,-0.007812
21743.0,-6.605469,-6.726562,2.179688,-0.003906,0.019531,0.03125,-0.009766,-0.003906,-0.003906
21764.0,-6.605469,-6.765625,2.21875,-0.003906,-0.019531,0.03125,-0.011719,-0.001953,-0.003906
21784.0,-6.605469,-6.765625,2.21875,-0.003906,-0.019531,0.03125,-0.003906,0.0,-0.003906
21803.0,-6.605469,-6.726562,2.179688,-0.003906,0.027344,-0.007812,0.0,0.0,-0.003906
21824.0,-6.640625,-6.769531,2.179688,-0.003906,0.027344,-0.007812,-0.005859,-0.001953,-0.003906
21837.0,-6.605469,-6.769531,2.179688,0.035156,0.027344,-0.007812,-0.005859,-0.003906,0.0
21854.0,-6.566406,-6.765625,2.21875,0.035156,0.027344,-0.007812,0.0,-0.001953,0.001953
21876.0,-6.566406,-6.804688,2.21875,0.035156,-0.050781,0.03125,-0.001953,-0.001953,0.0
21893.0,-6.605469,-6.804688,2.21875,-0.039062,-0.050781,0.03125,0.007812,0.0,0.0
21916.0,-6.640625,-6.769531,2.179688,-0.046875,-0.011719,-0.015625,0.009766,0.0,0.0
21948.0,-6.605469,-6.769531,2.140625,-0.003906,-0.011719,-0.0625,0.003906,-0.005859,0.009766
21964.0,-6.566406,-6.804688,2.21875,-0.003906,-0.050781,0.023438,-0.013672,-0.003906,-0.003906
21986.0,-6.527344,-6.765625,2.179688,0.066406,-0.003906,-0.015625,-0.001953,0.0,-0.003906
22028.0,-6.605469,-6.730469,2.21875,-0.011719,0.035156,0.023438,0.005859,0.0,-0.001953
22044.0,-6.605469,-6.730469,2.257812,-0.011719,0.035156,0.054688,0.011719,0.005859,0.0
22068.0,-6.605469,-6.730469,2.21875,-0.011719,0.027344,0.015625,-0.001953,0.0,-0.003906
22084.0,-6.605469,-6.730469,2.21875,-0.011719,0.027344,0.054688,-0.009766,-0.003906,0.0
22107.0,-6.605469,-6.769531,2.179688,-0.011719,-0.011719,-0.023438,-0.005859,-0.007812,0.001953
22124.0,-6.605469,-6.765625,2.21875,0.027344,-0.011719,-0.023438,-0.009766,0.001953,0.003906
22147.0,-6.605469,-6.804688,2.21875,-0.011719,-0.050781,0.015625,-0.009766,-0.001953,0.003906
22178.0,-6.640625,-6.726562,2.179688,-0.046875,0.027344,-0.023438,0.007812,0.0,0.0
22194.0,-6.566406,-6.769531,2.140625,0.027344,0.027344,-0.101562,0.0,0.0,0.001953
22217.0,-6.605469,-6.726562,2.179688,-0.011719,0.027344,-0.023438,-0.005859,0.001953,0.0
22235.0,-6.640625,-6.765625,2.257812,-0.046875,-0.011719,0.015625,-0.017578,-0.011719,0.0
22257.0,-6.605469,-6.765625,2.21875,-0.011719,-0.011719,0.023438,-0.025391,-0.011719,0.0
22268.0,-6.566406,-6.804688,2.21875,0.027344,-0.050781,0.015625,-0.005859,-0.003906,0.0
22284.0,-6.527344,-6.808594,2.21875,0.027344,-0.050781,-0.023438,0.013672,0.0,-0.001953
22304.0,-6.566406,-6.695312,2.21875,0.035156,0.035156,-0.023438,0.011719,-0.001953,0.003906
22325.0,-6.605469,-6.730469,2.21875,0.035156,0.070312,0.007812,-0.001953,-0.001953,0.0
22338.0,-6.605469,-6.726562,2.179688,-0.011719,0.027344,0.015625,-0.011719,-0.007812,0.0
22356.0,-6.605469,-6.769531,2.179688,-0.011719,-0.011719,0.015625,-0.003906,0.0,0.003906
22377.0,-6.566406,-6.808594,2.140625,0.027344,-0.050781,-0.0625,0.005859,0.003906,0.005859
22409.0,-6.566406,-6.769531,2.179688,0.019531,0.027344,-0.023438,0.013672,0.007812,0.0
22425.0,-6.605469,-6.726562,2.140625,-0.019531,0.027344,-0.0625,0.0,0.009766,-0.003906
22449.0,-6.605469,-6.726562,2.179688,-0.019531,0.035156,-0.015625,-0.005859,0.011719,-0.003906
22474.0,-6.640625,-6.730469,2.21875,-0.011719,0.027344,0.03125,-0.005859,0.0,0.0
22494.0,-6.605469,-6.730469,2.21875,-0.011719,0.035156,0.070312,-0.009766,-0.001953,0.001953
22514.0,-6.566406,-6.730469,2.257812,0.027344,0.019531,0.03125,-0.013672,0.0,0.003906
22528.0,-6.605469,-6.726562,2.179688,0.027344,0.027344,-0.007812,-0.023438,-0.001953,0.0
22545.0,-6.605469,-6.765625,2.21875,-0.011719,0.027344,0.03125,-0.021484,-0.007812,0.003906
22568.0,-6.566406,-6.808594,2.179688,0.027344,-0.050781,-0.007812,-0.017578,-0.003906,0.001953
22585.0,-6.566406,-6.808594,2.179688,0.027344,-0.050781,-0.046875,-0.003906,0.0,0.003906
22608.0,-6.605469,-6.769531,2.179688,-0.019531,-0.011719,-0.007812,-0.005859,0.001953,0.001953
22625.0,-6.605469,-6.769531,2.179688,-0.019531,-0.050781,0.03125,-0.009766,0.001953,0.001953
22655.0,-6.566406,-6.765625,2.257812,0.019531,0.027344,0.03125,0.0,0.003906,0.007812
22679.0,-6.605469,-6.769531,2.179688,-0.011719,-0.011719,-0.007812,0.001953,0.003906,0.005859
22695.0,-6.679688,-6.769531,2.179688,-0.046875,-0.003906,-0.007812,-0.003906,0.001953,0.001953
22718.0,-6.640625,-6.769531,2.140625,-0.046875,-0.003906,-0.046875,-0.005859,0.007812,0.003906
22728.0,-6.605469,-6.808594,2.179688,-0.011719,-0.042969,0.0,-0.009766,0.003906,0.003906
22758.0,-6.566406,-6.769531,2.179688,0.035156,-0.003906,0.0,0.0,0.003906,0.007812
22799.0,-6.566406,-6.765625,2.101562,0.035156,-0.003906,-0.078125,0.005859,0.007812,0.001953
22815.0,-6.605469,-6.699219,2.140625,0.027344,0.070312,-0.039062,-0.001953,0.0,-0.003906
22838.0,-6.605469,-6.726562,2.179688,-0.011719,0.035156,0.0,-0.011719,-0.003906,-0.003906
22855.0,-6.605469,-6.769531,2.140625,-0.046875,-0.003906,0.0,-0.009766,0.0,0.0
22878.0,-6.605469,-6.699219,2.140625,-0.011719,0.070312,-0.03125,0.0,0.001953,0.001953
22895.0,-6.605469,-6.695312,2.101562,-0.003906,0.0625,-0.023438,-0.017578,-0.001953,0.005859
22910.0,-6.640625,-6.726562,2.140625,-0.03125,-0.011719,0.015625,-0.027344,-0.007812,0.001953
22949.0,-6.605469,-6.808594,2.179688,-0.003906,-0.042969,0.015625,-0.009766,-0.005859,0.003906
22966.0,-6.566406,-6.769531,2.179688,0.035156,-0.042969,-0.023438,0.009766,0.0,-0.003906
23005.0,-6.640625,-6.726562,2.140625,-0.003906,-0.011719,-0.054688,0.027344,0.003906,-0.001953
23029.0,-6.640625,-6.699219,2.179688,-0.039062,0.0625,0.015625,0.003906,-0.001953,0.003906
23046.0,-6.605469,-6.730469,2.21875,-0.039062,0.027344,0.054688,-0.015625,-0.005859,0.001953
23067.0,-6.566406,-6.730469,2.21875,0.035156,0.027344,0.054688,-0.021484,-0.005859,0.0
23109.0,-6.605469,-6.726562,2.140625,-0.003906,0.027344,-0.023438,0.017578,-0.001953,0.001953
23126.0,-6.605469,-6.726562,2.179688,-0.003906,0.027344,-0.023438,0.009766,0.0,0.001953
23156.0,-6.640625,-6.726562,2.179688,-0.003906,0.019531,0.007812,-0.001953,-0.001953,0.0
23179.0,-6.605469,-6.769531,2.179688,-0.003906,-0.019531,0.007812,0.0,-0.005859,0.0
23196.0,-6.605469,-6.769531,2.140625,-0.003906,-0.019531,-0.03125,0.013672,0.0,0.0
23218.0,-6.605469,-6.726562,2.179688,-0.003906,0.019531,0.007812,0.013672,-0.001953,0.003906
23236.0,-6.683594,-6.65625,2.21875,-0.039062,0.054688,0.085938,0.023438,0.001953,0.009766
23258.0,-6.566406,-6.765625,2.101562,0.035156,-0.027344,-0.078125,0.005859,0.001953,0.009766
23276.0,-6.605469,-6.804688,2.21875,-0.003906,-0.027344,0.0,-0.007812,-0.003906,-0.007812
23298.0,-6.640625,-6.765625,2.21875,-0.03125,-0.019531,0.039062,0.0,-0.001953,-0.007812
23339.0,-6.605469,-6.765625,2.21875,0.003906,-0.027344,0.039062,0.001953,0.005859,0.001953
23356.0,-6.605469,-6.808594,2.179688,0.042969,-0.058594,0.0,0.019531,0.009766,-0.003906
23379.0,-6.640625,-6.730469,2.21875,-0.039062,0.019531,0.03125,0.021484,0.001953,-0.003906
23410.0,-6.566406,-6.765625,2.257812,0.035156,-0.027344,0.070312,-0.009766,0.0,0.0
23427.0,-6.605469,-6.765625,2.21875,-0.003906,-0.027344,0.023438,0.013672,0.001953,-0.001953
23450.0,-6.640625,-6.726562,2.179688,-0.03125,0.019531,-0.015625,0.017578,0.0,-0.001953
23467.0,-6.640625,-6.699219,2.179688,-0.03125,0.054688,-0.015625,0.011719,0.003906,-0.003906
23488.0,-6.605469,-6.769531,2.140625,-0.003906,-0.019531,-0.054688,0.007812,0.001953,-0.001953
23529.0,-6.605469,-6.726562,2.140625,-0.003906,0.019531,-0.054688,-0.005859,0.003906,-0.007812
23569.0,-6.605469,-6.769531,2.179688,-0.003906,-0.011719,-0.007812,0.003906,0.011719,-0.009766
23587.0,-6.640625,-6.726562,2.140625,-0.039062,-0.050781,-0.046875,0.015625,0.0,-0.005859
23610.0,-6.605469,-6.695312,2.21875,-0.003906,0.054688,0.039062,0.003906,0.003906,-0.009766
23627.0,-6.605469,-6.765625,2.21875,-0.003906,0.019531,0.039062,-0.007812,0.009766,-0.007812
23657.0,-6.640625,-6.769531,2.140625,-0.039062,-0.050781,-0.039062,0.0,0.0,-0.009766
23680.0,-6.605469,-6.804688,2.21875,-0.003906,-0.050781,0.039062,0.005859,0.001953,-0.005859
23697.0,-6.605469,-6.808594,2.140625,-0.003906,-0.042969,-0.039062,0.029297,0.015625,-0.009766
23720.0,-6.605469,-6.699219,2.140625,-0.003906,0.070312,-0.039062,0.029297,0.017578,-0.015625
23736.0,-6.640625,-6.726562,2.140625,-0.003906,0.070312,-0.078125,0.017578,0.019531,-0.021484
23760.0,-6.679688,-6.769531,2.140625,-0.078125,-0.003906,-0.039062,0.005859,0.011719,-0.023438
23777.0,-6.71875,-6.765625,2.140625,-0.117188,-0.003906,-0.070312,0.005859,0.013672,-0.019531
23800.0,-6.679688,-6.769531,2.140625,-0.070312,0.003906,-0.023438,0.005859,0.011719,-0.017578
23817.0,-6.679688,-6.769531,2.179688,-0.078125,0.003906,0.007812,0.029297,0.015625,-0.023438
23841.0,-6.605469,-6.699219,2.179688,0.003906,0.085938,0.015625,0.021484,0.013672,-0.027344
23857.0,-6.679688,-6.726562,2.179688,-0.070312,0.050781,0.015625,0.033203,0.009766,-0.025391
23880.0,-6.679688,-6.726562,2.140625,-0.0625,0.050781,-0.03125,0.037109,0.003906,-0.021484
23897.0,-6.640625,-6.726562,2.140625,-0.0625,0.050781,-0.070312,0.027344,0.001953,-0.029297
23911.0,-6.605469,-6.730469,2.101562,0.003906,0.042969,-0.039062,0.021484,0.003906,-0.033203
23927.0,-6.605469,-6.769531,2.179688,0.011719,0.050781,-0.03125,0.003906,0.0,-0.039062
23951.0,-6.605469,-6.808594,2.179688,-0.003906,-0.027344,0.007812,0.005859,-0.007812,-0.044922
23967.0,-6.605469,-6.769531,2.179688,-0.003906,-0.027344,0.007812,-0.001953,-0.007812,-0.048828
23991.0,-6.605469,-6.84375,2.179688,-0.003906,-0.058594,0.007812,0.023438,0.0,-0.044922
24008.0,-6.605469,-6.921875,2.101562,-0.011719,-0.089844,-0.03125,0.039062,0.005859,-0.052734
24028.0,-6.605469,-6.886719,2.101562,-0.019531,-0.082031,-0.078125,0.056641,0.009766,-0.060547
24069.0,-6.566406,-7.042969,1.875,0.011719,-0.203125,-0.304688,0.054688,0.029297,-0.076172
24111.0,-6.527344,-7.5,1.910156,0.019531,-0.617188,-0.246094,0.099609,0.109375,-0.134766
24127.0,-6.488281,-7.648438,1.949219,0.011719,-0.714844,-0.238281,0.160156,0.142578,-0.181641
24150.0,-6.296875,-7.460938,2.140625,0.210938,-0.507812,-0.007812,0.244141,0.1875,-0.234375
24167.0,-6.222656,-7.503906,2.21875,0.269531,-0.5,0.070312,0.333984,0.240234,-0.261719
24182.0,-6.257812,-7.460938,2.101562,0.210938,-0.515625,-0.023438,0.402344,0.265625,-0.279297
24198.0,-6.257812,-7.464844,2.066406,0.195312,-0.507812,-0.039062,0.529297,0.339844,-0.304688
24220.0,-6.375,-7.148438,2.179688,0.039062,-0.128906,-0.039062,0.599609,0.373047,-0.3125
24238.0,-6.449219,-7.0,2.179688,0.023438,-0.007812,-0.101562,0.660156,0.425781,-0.34375
24260.0,-6.488281,-6.921875,2.066406,-0.136719,0.140625,-0.222656,0.664062,0.447266,-0.351562
24277.0,-6.335938,-6.84375,2.027344,-0.078125,0.183594,-0.203125,0.5625,0.435547,-0.359375
24300.0,-6.183594,-6.582031,2.179688,0.105469,0.523438,-0.15625,0.529297,0.431641,-0.351562
24317.0,-6.144531,-6.539062,2.332031,0.089844,0.578125,-0.085938,0.408203,0.408203,-0.355469
24341.0,-6.066406,-6.539062,2.179688,0.160156,0.617188,-0.171875,0.392578,0.431641,-0.359375
24368.0,-6.183594,-6.84375,2.21875,0.050781,0.53125,-0.171875,0.308594,0.441406,-0.367188
24388.0,-6.222656,-7.082031,2.21875,-0.09375,0.140625,-0.125,0.294922,0.412109,-0.371094
24411.0,-6.257812,-6.882812,2.332031,-0.140625,0.378906,0.003906,0.3125,0.410156,-0.371094
24427.0,-6.335938,-6.925781,2.601562,-0.164062,0.433594,0.15625,0.316406,0.417969,-0.359375
24450.0,-6.488281,-7.078125,2.871094,-0.449219,0.25,0.558594,0.308594,0.40625,-0.347656
24461.0,-6.488281,-7.042969,2.90625,-0.464844,0.304688,0.59375,0.298828,0.355469,-0.318359
24478.0,-6.449219,-6.960938,3.023438,-0.441406,0.351562,0.59375,0.210938,0.253906,-0.3125
24497.0,-6.640625,-7.152344,3.75,-0.628906,0.382812,1.324219,0.095703,0.134766,-0.306641
24517.0,-6.414062,-7.53125,3.902344,-0.621094,0.070312,1.507812,0.121094,0.052734,-0.248047
24538.0,-6.105469,-7.652344,3.519531,-0.316406,-0.289062,1.375,0.220703,-0.042969,-0.185547
24558.0,-5.800781,-7.421875,3.40625,-0.214844,-0.207031,1.167969,0.265625,-0.085938,-0.121094
24578.0,-5.53125,-7.269531,3.0625,0.175781,0.109375,0.683594,0.191406,-0.113281,-0.091797
24588.0,-5.417969,-7.1875,3.023438,0.3125,0.183594,0.625,0.148438,-0.119141,-0.083984
24603.0,-5.300781,-7.078125,2.945312,0.679688,0.53125,0.355469,0.095703,-0.136719,-0.074219
24628.0,-4.765625,-7.109375,2.679688,0.894531,0.46875,0.207031,-0.021484,-0.089844,-0.039062
24648.0,-4.496094,-7.152344,2.523438,1.269531,0.316406,0.007812,-0.033203,-0.007812,0.021484
24668.0,-4.535156,-7.082031,2.410156,1.308594,0.316406,0.007812,-0.0625,0.085938,0.103516
24683.0,-4.535156,-7.078125,2.449219,1.285156,0.382812,0.03125,-0.109375,0.134766,0.144531
24699.0,-4.496094,-7.152344,2.679688,1.300781,0.375,0.171875,-0.183594,0.193359,0.207031
24721.0,-4.648438,-7.308594,2.945312,1.242188,0.121094,0.546875,-0.191406,0.212891,0.220703
24738.0,-4.804688,-7.460938,2.871094,1.1875,0.039062,0.570312,-0.228516,0.238281,0.220703
24761.0,-5.035156,-7.460938,2.90625,0.949219,-0.0625,0.625,-0.212891,0.238281,0.230469
24778.0,-5.261719,-7.421875,2.945312,0.8125,-0.078125,0.6875,-0.117188,0.228516,0.310547
24802.0,-5.722656,-7.503906,2.792969,0.363281,-0.164062,0.597656,-0.097656,0.265625,0.332031
24819.0,-6.03125,-7.570312,2.601562,0.234375,-0.222656,0.542969,-0.109375,0.257812,0.347656
24833.0,-6.222656,-7.574219,2.5625,-0.164062,-0.371094,0.515625,-0.150391,0.238281,0.357422
24858.0,-6.375,-8.300781,2.332031,-0.300781,-0.945312,0.222656,-0.103516,0.224609,0.398438
24873.0,-6.335938,-8.070312,2.449219,-0.078125,-0.6875,0.332031,-0.005859,0.242188,0.441406
24912.0,-6.066406,-6.621094,2.101562,0.371094,0.460938,0.109375,0.052734,0.240234,0.427734
24928.0,-6.144531,-6.421875,1.949219,0.332031,0.550781,0.050781,-0.046875,0.222656,0.380859
24951.0,-6.183594,-6.273438,1.527344,0.371094,0.710938,-0.402344,-0.111328,0.224609,0.332031
24969.0,-6.222656,-6.238281,1.335938,0.402344,0.773438,-0.523438,-0.183594,0.242188,0.291016
24991.0,-6.488281,-6.234375,1.453125,0.160156,0.6875,-0.359375,-0.242188,0.246094,0.28125
25019.0,-6.679688,-6.539062,1.566406,0.054688,0.511719,-0.089844,-0.369141,0.285156,0.263672
25032.0,-6.796875,-6.695312,1.453125,-0.253906,-0.046875,-0.121094,-0.369141,0.289062,0.25
25049.0,-7.523438,-7.652344,1.949219,-0.496094,-0.402344,0.15625,-0.333984,0.224609,0.162109
25072.0,-7.5625,-7.691406,2.140625,-0.765625,-0.847656,0.632812,-0.277344,0.162109,0.119141
25089.0,-7.328125,-7.230469,1.835938,-0.648438,-0.617188,0.574219,-0.097656,0.058594,0.087891
25112.0,-6.949219,-6.730469,1.144531,-0.128906,0.097656,-0.316406,-0.017578,0.064453,0.134766
25129.0,-6.640625,-6.3125,0.953125,0.03125,0.273438,-0.46875,0.066406,0.107422,0.191406
25144.0,-6.5625,-6.121094,0.761719,0.484375,0.785156,-0.921875,0.087891,0.15625,0.212891
25159.0,-6.445312,-5.621094,0.339844,0.539062,0.921875,-1.113281,0.111328,0.259766,0.226562
25183.0,-6.945312,-5.699219,0.53125,-0.027344,1.027344,-0.882812,0.005859,0.310547,0.164062
25198.0,-7.222656,-5.699219,0.761719,-0.164062,1.011719,-0.734375,-0.171875,0.273438,0.117188
25222.0,-7.605469,-6.15625,1.222656,-0.625,0.546875,-0.074219,-0.205078,0.257812,0.095703
25262.0,-8.019531,-6.121094,1.105469,-1.003906,0.550781,-0.097656,-0.041016,0.162109,0.15625
25279.0,-8.09375,-6.273438,0.992188,-1.035156,0.507812,-0.117188,-0.0625,0.103516,0.173828
25303.0,-7.988281,-6.3125,0.878906,-0.921875,0.3125,-0.285156,-0.042969,0.035156,0.154297
25319.0,-7.867188,-6.234375,0.839844,-0.875,0.335938,-0.363281,-0.042969,-0.017578,0.115234
25342.0,-7.871094,-6.082031,0.761719,-0.773438,0.511719,-0.394531,-0.105469,-0.054688,0.078125
25373.0,-7.605469,-6.15625,0.761719,-0.5,0.421875,-0.386719,-0.150391,-0.091797,0.078125
25390.0,-7.445312,-6.121094,0.839844,-0.40625,0.449219,-0.339844,-0.171875,-0.121094,0.087891
25414.0,-7.289062,-6.042969,1.03125,-0.167969,0.511719,-0.101562,-0.195312,-0.162109,0.058594
25429.0,-7.328125,-5.964844,1.03125,-0.128906,0.550781,-0.0625,-0.216797,-0.208984,0.042969
25453.0,-7.488281,-6.15625,0.992188,-0.359375,0.398438,-0.140625,-0.210938,-0.203125,0.064453
25470.0,-7.449219,-6.273438,0.878906,-0.351562,0.304688,-0.285156,-0.222656,-0.232422,0.089844
25493.0,-7.449219,-6.195312,1.03125,-0.296875,0.328125,-0.109375,-0.205078,-0.251953,0.095703
25510.0,-7.449219,-6.195312,1.335938,-0.296875,0.328125,0.042969,-0.201172,-0.308594,0.101562
25533.0,-7.289062,-6.65625,1.296875,-0.128906,-0.15625,0.117188,-0.132812,-0.310547,0.109375
25550.0,-7.101562,-6.617188,1.03125,-0.007812,-0.203125,-0.082031,-0.013672,-0.310547,0.089844
25573.0,-7.183594,-6.042969,1.296875,-0.007812,0.425781,0.039062,0.072266,-0.316406,0.095703
25589.0,-7.253906,-5.699219,1.527344,-0.039062,0.609375,0.210938,0.042969,-0.347656,0.125
25613.0,-7.179688,-5.660156,1.527344,0.007812,0.769531,0.160156,-0.076172,-0.398438,0.134766
25630.0,-7.179688,-5.773438,1.796875,0.015625,0.722656,0.292969,-0.189453,-0.474609,0.171875
25650.0,-7.292969,-6.195312,2.066406,-0.042969,0.433594,0.519531,-0.193359,-0.539062,0.203125
25670.0,-7.289062,-6.695312,1.875,-0.082031,0.1875,0.605469,-0.162109,-0.576172,0.175781
25684.0,-7.25,-6.886719,1.757812,-0.035156,-0.617188,0.164062,-0.101562,-0.583984,0.148438
25699.0,-7.332031,-6.769531,1.683594,-0.074219,-0.585938,0.089844,-0.001953,-0.675781,0.095703
25723.0,-7.367188,-6.386719,2.101562,-0.160156,-0.066406,0.375,-0.052734,-0.654297,0.072266
25740.0,-7.144531,-6.234375,1.414062,-0.089844,-0.007812,0.023438,-0.279297,-0.630859,0.017578
25763.0,-6.984375,-5.925781,1.105469,0.183594,0.402344,-0.746094,-0.392578,-0.630859,-0.03125
25780.0,-7.183594,-6.15625,1.335938,0.09375,0.292969,-0.644531,-0.5,-0.625,-0.074219
25804.0,-6.90625,-6.464844,1.414062,0.191406,-0.082031,-0.492188,-0.630859,-0.628906,-0.128906
25820.0,-6.828125,-6.347656,1.375,0.207031,-0.019531,-0.570312,-0.605469,-0.5625,-0.123047
25843.0,-6.945312,-6.503906,1.605469,0.089844,-0.050781,-0.308594,-0.570312,-0.525391,-0.109375
25860.0,-6.871094,-6.882812,1.644531,0.074219,-0.21875,-0.1875,-0.4375,-0.382812,-0.101562
25875.0,-6.71875,-7.003906,1.605469,0.464844,-0.578125,-0.378906,-0.34375,-0.308594,-0.097656
25890.0,-6.488281,-7.152344,1.492188,0.488281,-0.597656,-0.453125,-0.103516,-0.173828,-0.097656
25915.0,-6.566406,-7.113281,1.566406,0.386719,-0.582031,-0.355469,0.089844,-0.060547,-0.095703
25931.0,-6.605469,-6.621094,1.644531,0.378906,-0.347656,-0.363281,0.167969,-0.003906,-0.072266
25954.0,-6.761719,-6.121094,1.757812,0.171875,0.425781,-0.195312,0.136719,-0.003906,-0.072266
25971.0,-6.828125,-6.195312,1.757812,0.125,0.433594,-0.195312,-0.203125,-0.023438,-0.119141
25992.0,-6.984375,-6.121094,1.683594,-0.089844,0.472656,-0.230469,-0.320312,-0.044922,-0.138672
26010.0,-7.0625,-5.964844,1.949219,-0.105469,0.566406,-0.132812,-0.601562,-0.150391,-0.138672
26034.0,-7.222656,-6.234375,2.484375,-0.367188,0.4375,0.703125,-0.792969,-0.251953,-0.117188
26051.0,-7.101562,-6.769531,2.601562,-0.382812,0.183594,0.851562,-0.826172,-0.328125,-0.115234
26080.0,-6.871094,-7.421875,2.523438,-0.074219,-0.558594,0.851562,-0.449219,-0.300781,-0.083984
26113.0,-6.566406,-7.191406,1.910156,0.199219,-0.402344,0.253906,-0.091797,-0.232422,-0.011719
26144.0,-6.640625,-6.660156,1.835938,0.117188,0.125,0.132812,0.03125,-0.234375,0.033203
26160.0,-6.683594,-6.65625,1.835938,0.078125,0.125,0.15625,-0.109375,-0.275391,0.013672
26185.0,-6.640625,-6.804688,1.71875,0.101562,-0.019531,-0.023438,-0.205078,-0.271484,-0.001953
26201.0,-6.679688,-6.964844,1.757812,0.054688,-0.097656,-0.03125,-0.234375,-0.261719,-0.027344
26223.0,-6.414062,-7.039062,1.644531,0.304688,-0.234375,-0.113281,-0.226562,-0.253906,-0.039062
26241.0,-6.640625,-6.964844,1.875,0.183594,-0.148438,-0.082031,-0.134766,-0.244141,-0.052734
26263.0,-6.71875,-6.769531,1.988281,-0.03125,0.058594,0.207031,-0.119141,-0.246094,-0.041016
26304.0,-6.605469,-6.847656,1.875,0.066406,-0.019531,0.054688,-0.033203,-0.181641,0.011719
26321.0,-6.527344,-6.808594,1.757812,0.105469,0.019531,0.0,0.021484,-0.138672,0.023438
26345.0,-6.605469,-6.695312,1.835938,0.066406,0.132812,-0.03125,0.013672,-0.121094,0.001953
26375.0,-6.527344,-6.882812,1.835938,0.214844,-0.132812,-0.132812,-0.046875,-0.097656,-0.015625
26391.0,-6.296875,-7.152344,1.605469,0.320312,-0.203125,-0.171875,-0.029297,-0.039062,-0.048828
26413.0,-6.183594,-7.5,1.414062,0.464844,-0.65625,-0.476562,0.011719,0.003906,-0.066406
26424.0,-6.105469,-7.503906,1.335938,0.535156,-0.65625,-0.5625,0.136719,0.091797,-0.091797
26441.0,-6.105469,-7.191406,1.375,0.527344,-0.53125,-0.601562,0.226562,0.146484,-0.087891
26461.0,-6.527344,-6.84375,1.988281,0.21875,-0.035156,-0.148438,0.175781,0.140625,-0.09375
26481.0,-6.605469,-7.003906,2.257812,0.003906,-0.027344,0.226562,0.09375,0.132812,-0.113281
26501.0,-6.296875,-7.191406,1.988281,0.226562,-0.285156,0.160156,0.15625,0.177734,-0.138672
26521.0,-6.257812,-7.109375,1.949219,0.296875,-0.316406,0.082031,0.302734,0.242188,-0.128906
26542.0,-6.640625,-6.886719,2.027344,0.097656,-0.078125,0.074219,0.328125,0.210938,-0.103516
26575.0,-6.605469,-6.808594,2.140625,-0.035156,0.082031,0.195312,0.224609,0.164062,-0.101562
26592.0,-6.527344,-6.65625,2.101562,0.035156,0.160156,0.1875,0.179688,0.191406,-0.076172
26606.0,-6.566406,-6.621094,2.101562,-0.042969,0.320312,0.113281,0.148438,0.183594,-0.064453
26632.0,-6.679688,-6.503906,2.21875,-0.085938,0.433594,0.195312,0.029297,0.099609,-0.0625
26646.0,-6.640625,-6.503906,2.21875,-0.085938,0.328125,0.320312,-0.003906,0.080078,-0.064453
26661.0,-6.605469,-6.699219,2.140625,-0.058594,0.257812,0.28125,-0.017578,0.048828,-0.054688
26685.0,-6.566406,-6.695312,1.910156,-0.027344,0.226562,-0.011719,0.001953,0.033203,-0.027344
26702.0,-6.566406,-6.765625,1.910156,-0.027344,0.226562,-0.011719,0.041016,0.089844,-0.046875
26725.0,-6.640625,-6.847656,1.71875,-0.109375,0.082031,-0.195312,0.060547,0.085938,-0.041016
26741.0,-6.640625,-6.695312,1.644531,-0.109375,0.207031,-0.308594,-0.074219,0.027344,-0.03125
26764.0,-6.640625,-6.730469,1.910156,-0.117188,0.214844,0.027344,-0.142578,0.025391,-0.027344
26782.0,-6.566406,-6.765625,1.988281,-0.082031,0.183594,0.082031,-0.308594,-0.015625,-0.021484
26805.0,-6.527344,-7.042969,2.179688,-0.011719,-0.070312,0.367188,-0.302734,-0.003906,-0.046875
26822.0,-6.449219,-7.304688,2.101562,0.027344,-0.253906,0.351562,-0.160156,0.029297,-0.041016
26844.0,-6.488281,-7.269531,1.910156,0.019531,-0.277344,0.152344,-0.078125,0.050781,-0.033203
26876.0,-6.449219,-6.921875,1.835938,0.058594,0.070312,0.078125,0.0625,0.048828,-0.007812
26892.0,-6.449219,-6.960938,1.796875,0.058594,0.070312,0.078125,0.009766,0.050781,-0.019531
26914.0,-6.449219,-7.003906,1.835938,0.058594,0.0,0.085938,0.005859,0.056641,-0.03125
26956.0,-6.605469,-6.804688,1.988281,-0.105469,0.199219,0.246094,-0.035156,-0.003906,-0.044922
26972.0,-6.488281,-6.882812,1.835938,-0.066406,0.160156,0.167969,-0.039062,-0.003906,-0.033203
26996.0,-6.335938,-7.039062,1.683594,0.15625,-0.023438,-0.050781,0.0,0.033203,-0.015625
27036.0,-6.488281,-6.84375,1.757812,-0.003906,0.167969,0.023438,0.027344,0.042969,0.013672
27053.0,-6.488281,-6.808594,1.757812,-0.003906,0.167969,-0.050781,-0.021484,0.021484,0.015625
27068.0,-6.488281,-6.847656,1.796875,-0.035156,0.085938,0.0625,-0.042969,0.011719,0.001953
27092.0,-6.527344,-7.152344,1.875,-0.042969,-0.097656,0.183594,-0.099609,-0.021484,-0.054688
27113.0,-6.414062,-7.152344,1.683594,0.027344,-0.167969,0.046875,-0.087891,-0.007812,-0.056641
27133.0,-6.414062,-7.1875,1.683594,0.0625,-0.121094,-0.019531,-0.027344,0.007812,-0.048828
27147.0,-6.488281,-7.1875,1.644531,0.011719,-0.144531,-0.089844,-0.021484,-0.003906,-0.050781
27162.0,-6.375,-7.082031,1.605469,0.046875,-0.105469,-0.089844,0.013672,0.019531,-0.052734
27185.0,-6.375,-6.960938,1.644531,0.09375,0.054688,-0.152344,0.009766,0.023438,-0.050781
27203.0,-6.414062,-6.882812,1.644531,0.085938,0.046875,-0.144531,-0.021484,0.042969,-0.064453
27225.0,-6.566406,-6.921875,1.757812,-0.121094,0.101562,-0.007812,-0.019531,0.03125,-0.066406
27242.0,-6.488281,-6.882812,1.757812,-0.121094,0.101562,-0.007812,-0.011719,0.017578,-0.033203
27265.0,-6.488281,-6.84375,1.71875,-0.042969,0.175781,-0.03125,-0.011719,0.025391,-0.019531
27283.0,-6.527344,-6.882812,1.683594,-0.042969,0.128906,-0.023438,-0.005859,0.035156,0.007812
27298.0,-6.488281,-6.882812,1.71875,-0.082031,0.128906,-0.023438,-0.011719,0.033203,0.013672
27338.0,-6.527344,-6.960938,1.757812,0.011719,-0.054688,0.039062,-0.091797,-0.007812,0.015625
27376.0,-6.183594,-7.0,1.527344,0.292969,-0.023438,-0.160156,-0.007812,0.074219,0.0625
27393.0,-6.257812,-7.269531,1.71875,0.21875,-0.109375,0.003906,0.023438,0.111328,0.048828
27414.0,-6.066406,-7.691406,1.644531,0.410156,-0.714844,-0.011719,-0.025391,0.087891,0.015625
27426.0,-6.066406,-7.691406,1.644531,0.394531,-0.699219,0.003906,-0.060547,0.054688,-0.03125
27443.0,-6.105469,-7.53125,1.683594,0.394531,-0.613281,0.050781,0.007812,0.064453,-0.029297
27457.0,-6.183594,-7.425781,1.757812,0.15625,-0.382812,0.171875,0.035156,0.070312,-0.027344
27473.0,-6.375,-7.425781,1.757812,0.085938,-0.421875,0.210938,0.082031,0.085938,-0.037109
27495.0,-6.375,-7.347656,1.605469,0.070312,-0.328125,-0.027344,0.121094,0.095703,-0.042969
27537.0,-6.527344,-6.730469,1.605469,-0.082031,0.277344,-0.058594,0.1875,0.119141,-0.03125
27553.0,-6.527344,-6.621094,1.605469,-0.082031,0.351562,-0.058594,0.095703,0.117188,-0.035156
27577.0,-6.566406,-6.84375,1.566406,-0.136719,0.167969,-0.089844,0.082031,0.126953,-0.044922
27593.0,-6.527344,-6.882812,1.527344,-0.097656,0.128906,-0.128906,0.095703,0.136719,-0.025391
27614.0,-6.527344,-6.84375,1.644531,-0.050781,0.167969,-0.082031,0.103516,0.140625,0.003906
27633.0,-6.605469,-7.003906,1.683594,-0.089844,0.167969,-0.003906,0.099609,0.132812,0.0
27648.0,-6.605469,-7.109375,1.683594,-0.082031,-0.207031,0.003906,0.095703,0.134766,-0.011719
27663.0,-6.414062,-7.347656,1.566406,-0.011719,-0.285156,-0.035156,0.109375,0.152344,-0.035156
27686.0,-6.488281,-7.34375,1.71875,-0.050781,-0.320312,0.078125,0.132812,0.167969,-0.039062
27703.0,-6.488281,-7.34375,1.875,-0.089844,-0.320312,0.234375,0.228516,0.146484,-0.03125
27727.0,-6.183594,-7.230469,1.566406,0.253906,-0.214844,-0.097656,0.333984,0.1875,-0.017578
27753.0,-6.296875,-6.847656,1.527344,0.222656,-0.0625,-0.152344,0.460938,0.251953,0.037109
27773.0,-6.375,-6.847656,1.605469,0.117188,0.144531,-0.042969,0.416016,0.275391,0.052734
27799.0,-6.375,-6.578125,1.644531,0.101562,0.382812,-0.121094,0.34375,0.248047,0.0625
27838.0,-6.566406,-6.621094,1.683594,-0.011719,0.28125,-0.082031,0.175781,0.248047,0.048828
27854.0,-6.605469,-6.730469,1.644531,-0.050781,0.234375,-0.074219,0.169922,0.265625,0.078125
27878.0,-6.832031,-7.078125,1.835938,-0.285156,-0.171875,0.085938,0.154297,0.228516,0.035156
27893.0,-6.988281,-7.265625,2.179688,-0.355469,-0.285156,0.246094,0.072266,0.125,-0.033203
27917.0,-6.910156,-7.226562,2.292969,-0.363281,-0.324219,0.558594,0.021484,0.039062,-0.066406
27934.0,-6.679688,-7.039062,2.179688,-0.292969,-0.199219,0.558594,0.087891,0.035156,-0.042969
27957.0,-6.605469,-6.804688,1.910156,-0.066406,0.105469,0.152344,0.203125,0.074219,0.019531
27974.0,-6.527344,-6.65625,1.683594,-0.027344,0.136719,-0.007812,0.248047,0.089844,0.042969
27997.0,-6.640625,-6.3125,1.71875,-0.085938,0.570312,-0.078125,0.1875,0.068359,0.048828
28013.0,-6.679688,-6.503906,1.683594,-0.125,0.496094,-0.046875,0.046875,0.027344,0.019531
28037.0,-6.449219,-6.539062,1.605469,0.113281,0.34375,-0.191406,-0.035156,0.013672,0.013672
28054.0,-6.5625,-6.425781,1.644531,0.074219,0.417969,-0.191406,-0.074219,0.011719,0.027344
28078.0,-6.640625,-6.386719,1.835938,-0.070312,0.488281,0.0625,-0.119141,0.019531,0.076172
28094.0,-6.722656,-6.464844,1.875,-0.0625,0.488281,0.109375,-0.173828,0.005859,0.115234
28108.0,-6.761719,-6.578125,1.949219,-0.277344,0.136719,0.207031,-0.183594,-0.017578,0.111328
28123.0,-6.832031,-7.003906,2.066406,-0.269531,-0.027344,0.292969,-0.1875,-0.080078,0.080078
28147.0,-6.566406,-7.082031,1.835938,0.042969,-0.226562,0.125,-0.193359,-0.097656,0.068359
28164.0,-6.527344,-7.0,1.683594,0.089844,-0.1875,0.054688,-0.107422,-0.085938,0.085938
28187.0,-6.566406,-6.921875,1.683594,0.066406,-0.085938,-0.027344,-0.072266,-0.082031,0.097656
28204.0,-6.679688,-7.109375,1.683594,0.0,-0.171875,0.015625,-0.052734,-0.078125,0.103516
28228.0,-6.640625,-7.109375,1.71875,0.007812,-0.292969,0.007812,-0.003906,-0.085938,0.074219
28244.0,-6.527344,-6.886719,1.605469,0.050781,-0.1875,-0.074219,0.001953,-0.080078,0.050781
28267.0,-6.527344,-6.539062,1.527344,0.136719,0.265625,-0.199219,-0.009766,-0.066406,0.044922
28299.0,-6.601562,-6.578125,1.492188,0.066406,0.21875,-0.226562,-0.103516,-0.03125,0.050781
28324.0,-6.683594,-6.65625,1.683594,0.0,0.210938,-0.066406,-0.201172,-0.035156,0.046875
28344.0,-6.640625,-7.042969,1.757812,-0.039062,-0.050781,0.109375,-0.25,-0.039062,0.025391
28364.0,-6.527344,-7.039062,1.683594,0.039062,-0.242188,0.085938,-0.191406,-0.03125,0.019531
28379.0,-6.566406,-7.042969,1.683594,0.113281,-0.195312,0.042969,-0.154297,-0.025391,0.019531
28394.0,-6.640625,-7.003906,1.683594,0.082031,-0.195312,0.058594,-0.095703,-0.015625,0.029297
28418.0,-6.71875,-7.082031,1.605469,-0.023438,-0.28125,-0.003906,-0.048828,-0.009766,0.029297
28435.0,-6.796875,-7.042969,1.683594,-0.0625,-0.273438,0.035156,0.003906,-0.009766,0.021484
28458.0,-6.796875,-6.84375,1.605469,-0.109375,-0.050781,-0.011719,0.009766,-0.009766,0.009766
28475.0,-6.832031,-6.695312,1.605469,-0.144531,0.066406,-0.011719,-0.033203,0.001953,0.017578
28498.0,-6.757812,-6.765625,1.605469,-0.0625,0.027344,-0.003906,-0.052734,0.007812,0.027344
28515.0,-6.71875,-6.84375,1.683594,-0.023438,-0.019531,0.035156,-0.035156,0.017578,0.025391
28538.0,-6.640625,-6.84375,1.566406,0.0625,-0.058594,-0.035156,0.013672,0.021484,0.013672
28555.0,-6.71875,-6.730469,1.566406,0.023438,-0.019531,-0.035156,0.021484,0.023438,0.001953
28569.0,-6.761719,-6.695312,1.527344,-0.09375,0.09375,-0.035156,0.011719,0.021484,-0.003906
28584.0,-6.832031,-6.695312,1.566406,-0.128906,0.09375,-0.035156,-0.015625,0.003906,0.0
28609.0,-6.800781,-6.769531,1.644531,-0.09375,0.019531,0.050781,-0.011719,0.007812,0.007812
28625.0,-6.800781,-6.730469,1.605469,-0.121094,0.019531,0.011719,0.021484,0.009766,0.013672
28648.0,-6.832031,-6.65625,1.644531,-0.121094,0.132812,0.042969,0.021484,0.009766,0.013672
28658.0,-6.910156,-6.65625,1.683594,-0.199219,0.132812,0.082031,0.011719,-0.005859,0.015625
28688.0,-6.800781,-6.730469,1.605469,-0.078125,0.050781,0.003906,-0.023438,-0.035156,0.013672
28705.0,-6.71875,-6.769531,1.492188,-0.039062,0.050781,-0.074219,-0.060547,-0.03125,0.0
28728.0,-6.71875,-6.808594,1.527344,-0.007812,-0.019531,-0.066406,-0.064453,-0.033203,-0.009766
28745.0,-6.757812,-6.886719,1.605469,0.023438,-0.050781,0.003906,-0.060547,-0.044922,-0.009766
28768.0,-6.71875,-6.886719,1.605469,0.054688,-0.082031,0.003906,-0.046875,-0.041016,-0.009766
28785.0,-6.679688,-6.84375,1.566406,0.054688,-0.042969,-0.035156,0.017578,-0.007812,0.001953
28808.0,-6.796875,-6.808594,1.605469,-0.03125,0.003906,-0.003906,0.03125,-0.001953,-0.001953
28839.0,-6.71875,-6.769531,1.492188,0.046875,0.035156,-0.125,0.044922,-0.003906,-0.005859
28855.0,-6.722656,-6.695312,1.527344,0.046875,0.082031,-0.164062,0.042969,0.009766,-0.015625
28880.0,-6.679688,-6.730469,1.527344,0.078125,0.074219,-0.089844,0.011719,0.005859,-0.017578
28895.0,-6.71875,-6.765625,1.566406,0.070312,0.074219,-0.042969,0.011719,0.011719,-0.015625
28919.0,-6.679688,-6.726562,1.566406,0.070312,0.074219,-0.042969,0.019531,0.021484,-0.013672
28936.0,-6.640625,-6.699219,1.605469,0.0625,0.109375,-0.082031,-0.011719,0.013672,-0.011719
28959.0,-6.679688,-6.84375,1.566406,0.054688,-0.050781,-0.019531,-0.035156,0.009766,-0.013672
28976.0,-6.679688,-6.960938,1.605469,0.09375,-0.125,-0.019531,0.015625,0.015625,-0.013672
28999.0,-6.71875,-6.84375,1.527344,0.007812,-0.050781,-0.058594,0.044922,0.021484,-0.015625
29037.0,-6.757812,-6.769531,1.527344,-0.039062,0.035156,-0.058594,0.017578,0.019531,-0.009766
29079.0,-6.757812,-6.808594,1.644531,-0.039062,-0.011719,0.066406,0.005859,0.011719,-0.009766
29096.0,-6.800781,-6.769531,1.683594,-0.039062,0.027344,0.105469,0.003906,-0.003906,0.001953
29110.0,-6.757812,-6.769531,1.71875,-0.078125,0.035156,0.132812,-0.003906,-0.013672,0.003906
29148.0,-6.757812,-6.886719,1.605469,-0.03125,-0.089844,0.003906,0.009766,-0.025391,0.003906
29159.0,-6.679688,-6.886719,1.527344,0.046875,-0.089844,-0.074219,0.013672,-0.021484,0.001953
29188.0,-6.605469,-6.765625,1.492188,0.121094,0.027344,-0.117188,0.001953,-0.011719,0.0
29206.0,-6.679688,-6.808594,1.566406,0.085938,0.027344,-0.082031,-0.017578,-0.017578,-0.009766
29229.0,-6.640625,-6.804688,1.644531,0.078125,-0.011719,0.035156,-0.019531,-0.015625,-0.005859
29246.0,-6.566406,-6.808594,1.566406,0.113281,0.035156,-0.003906,-0.001953,0.007812,0.005859
29269.0,-6.605469,-6.847656,1.527344,0.105469,-0.042969,-0.074219,0.001953,0.019531,0.001953
29309.0,-6.761719,-6.730469,1.71875,-0.054688,0.074219,0.117188,0.0,-0.013672,-0.009766
29326.0,-6.761719,-6.730469,1.683594,-0.054688,0.074219,0.109375,-0.035156,-0.023438,-0.003906
29341.0,-6.757812,-6.769531,1.644531,-0.015625,-0.003906,-0.042969,-0.041016,-0.013672,-0.003906
29356.0,-6.71875,-6.804688,1.566406,-0.015625,-0.003906,-0.074219,-0.015625,-0.005859,0.005859
29381.0,-6.71875,-6.847656,1.566406,-0.023438,-0.042969,-0.035156,0.005859,-0.001953,0.005859
29397.0,-6.71875,-6.808594,1.683594,-0.023438,-0.042969,0.042969,-0.003906,-0.029297,-0.011719
29420.0,-6.71875,-6.726562,1.683594,-0.023438,0.074219,0.074219,-0.019531,-0.025391,-0.019531
29437.0,-6.71875,-6.730469,1.605469,0.015625,0.082031,0.074219,-0.023438,-0.013672,-0.015625
29460.0,-6.757812,-6.804688,1.566406,-0.070312,0.003906,-0.042969,-0.003906,-0.003906,0.0
29477.0,-6.757812,-6.804688,1.605469,-0.070312,0.035156,-0.042969,0.019531,0.001953,0.011719
29507.0,-6.71875,-6.730469,1.566406,-0.054688,0.027344,-0.082031,0.027344,0.007812,0.011719
29539.0,-6.679688,-6.769531,1.605469,0.03125,0.027344,-0.003906,-0.029297,0.003906,0.0
29570.0,-6.679688,-6.882812,1.566406,0.03125,-0.089844,-0.035156,-0.033203,0.005859,-0.005859
29587.0,-6.679688,-6.925781,1.605469,0.03125,-0.089844,0.042969,0.001953,0.009766,-0.005859
29609.0,-6.71875,-6.847656,1.605469,-0.015625,-0.042969,0.003906,0.009766,0.003906,-0.005859
29620.0,-6.71875,-6.84375,1.644531,-0.015625,-0.042969,0.042969,0.019531,0.009766,-0.003906
29649.0,-6.71875,-6.765625,1.605469,-0.007812,0.035156,0.003906,0.013672,0.007812,-0.003906
29660.0,-6.761719,-6.730469,1.644531,-0.046875,0.074219,0.042969,-0.001953,0.0,-0.003906
29677.0,-6.761719,-6.730469,1.644531,-0.046875,0.109375,0.042969,-0.011719,-0.005859,0.001953
29697.0,-6.71875,-6.765625,1.566406,-0.007812,0.035156,0.003906,-0.005859,0.0,0.0
29730.0,-6.71875,-6.765625,1.566406,-0.007812,0.027344,-0.042969,-0.005859,-0.001953,0.003906
29747.0,-6.679688,-6.769531,1.566406,0.03125,0.027344,-0.042969,-0.021484,-0.011719,0.001953
29769.0,-6.71875,-6.804688,1.566406,-0.007812,-0.011719,-0.035156,-0.017578,-0.011719,0.003906
29802.0,-6.71875,-6.804688,1.566406,-0.007812,-0.011719,-0.027344,-0.015625,-0.003906,0.001953
29817.0,-6.71875,-6.804688,1.605469,-0.007812,-0.011719,0.011719,-0.019531,-0.009766,0.005859
29842.0,-6.679688,-6.882812,1.605469,0.039062,-0.082031,0.019531,-0.021484,-0.015625,0.001953
29879.0,-6.679688,-6.84375,1.566406,0.03125,-0.042969,-0.027344,-0.001953,-0.003906,0.001953
29921.0,-6.679688,-6.84375,1.605469,0.023438,-0.035156,0.019531,0.001953,-0.007812,0.003906
29937.0,-6.679688,-6.808594,1.566406,-0.007812,-0.035156,0.011719,0.019531,0.001953,0.005859
29961.0,-6.71875,-6.769531,1.527344,-0.007812,0.042969,-0.074219,0.023438,0.005859,0.007812
29977.0,-6.679688,-6.699219,1.566406,0.0,0.082031,-0.035156,0.011719,0.003906,0.007812
30000.0,-6.640625,-6.765625,1.644531,0.0625,0.035156,0.042969,-0.013672,-0.001953,0.003906
30017.0,-6.679688,-6.808594,1.605469,0.023438,-0.003906,0.050781,-0.027344,-0.001953,-0.003906
30040.0,-6.71875,-6.847656,1.605469,-0.015625,-0.042969,0.011719,0.009766,0.007812,0.001953
30071.0,-6.71875,-6.765625,1.566406,-0.015625,0.035156,-0.027344,0.019531,0.011719,0.001953
30088.0,-6.757812,-6.769531,1.644531,-0.054688,0.035156,0.050781,-0.001953,0.0,0.005859
30112.0,-6.679688,-6.765625,1.644531,0.023438,0.035156,0.050781,-0.015625,-0.001953,0.005859
30128.0,-6.679688,-6.765625,1.644531,0.023438,0.035156,0.011719,-0.009766,0.001953,0.001953
30150.0,-6.71875,-6.808594,1.527344,-0.015625,-0.003906,-0.066406,-0.003906,0.007812,0.0
30161.0,-6.71875,-6.765625,1.566406,-0.015625,0.035156,-0.027344,-0.009766,-0.003906,-0.003906
30178.0,-6.757812,-6.804688,1.605469,-0.007812,0.035156,-0.027344,-0.003906,-0.007812,0.003906
30198.0,-6.71875,-6.730469,1.605469,0.03125,0.027344,-0.027344,-0.009766,-0.003906,0.005859
30230.0,-6.71875,-6.765625,1.566406,-0.007812,0.027344,-0.027344,-0.015625,-0.003906,0.009766
30248.0,-6.679688,-6.808594,1.566406,-0.007812,0.027344,-0.019531,-0.027344,-0.001953,0.003906
30270.0,-6.679688,-6.84375,1.605469,0.039062,-0.058594,0.027344,-0.023438,-0.007812,0.001953
30288.0,-6.71875,-6.84375,1.644531,0.023438,-0.011719,0.066406,-0.019531,-0.011719,0.0
30302.0,-6.679688,-6.84375,1.605469,0.023438,-0.011719,0.027344,-0.013672,-0.009766,0.001953
30318.0,-6.679688,-6.808594,1.605469,0.023438,-0.011719,-0.011719,0.001953,0.0,0.009766
30342.0,-6.71875,-6.847656,1.605469,-0.007812,-0.050781,0.027344,0.009766,0.0,0.009766
30358.0,-6.71875,-6.804688,1.566406,-0.007812,-0.011719,-0.019531,0.003906,0.0,0.005859
30382.0,-6.679688,-6.84375,1.566406,0.03125,-0.050781,-0.019531,-0.005859,-0.003906,-0.001953
30398.0,-6.679688,-6.882812,1.605469,0.03125,-0.089844,0.019531,-0.015625,-0.003906,-0.009766
30420.0,-6.640625,-6.886719,1.527344,0.0625,-0.082031,-0.058594,-0.003906,0.003906,-0.011719
30461.0,-6.796875,-6.65625,1.605469,-0.09375,0.148438,0.019531,0.044922,0.013672,0.005859
30501.0,-6.71875,-6.65625,1.644531,-0.007812,0.132812,0.050781,-0.017578,-0.003906,0.015625
30518.0,-6.757812,-6.765625,1.566406,-0.085938,0.058594,0.019531,-0.035156,-0.015625,0.007812
30541.0,-6.71875,-6.886719,1.605469,0.0,-0.105469,0.011719,-0.029297,-0.017578,0.003906
30558.0,-6.71875,-6.886719,1.605469,0.0,-0.097656,0.019531,-0.003906,-0.015625,0.001953
30578.0,-6.679688,-6.808594,1.566406,0.046875,-0.066406,-0.019531,0.013672,-0.005859,0.001953
30598.0,-6.679688,-6.769531,1.566406,0.039062,-0.027344,-0.019531,0.013672,0.0,0.005859
30619.0,-6.679688,-6.804688,1.527344,0.039062,-0.019531,-0.027344,0.011719,0.001953,0.005859
30651.0,-6.679688,-6.765625,1.527344,0.039062,0.011719,-0.058594,0.015625,0.003906,0.001953
30668.0,-6.679688,-6.765625,1.492188,0.039062,0.011719,-0.09375,-0.013672,0.001953,-0.011719
30692.0,-6.71875,-6.804688,1.605469,-0.007812,-0.027344,0.027344,-0.011719,0.005859,-0.003906
30709.0,-6.71875,-6.847656,1.605469,0.03125,-0.058594,0.074219,0.007812,0.015625,0.001953
30731.0,-6.757812,-6.804688,1.566406,-0.046875,-0.019531,-0.003906,0.017578,0.019531,0.0
30748.0,-6.757812,-6.730469,1.566406,-0.046875,0.019531,0.035156,0.029297,0.013672,0.0
30764.0,-6.757812,-6.730469,1.566406,-0.046875,0.019531,-0.050781,0.023438,0.009766,-0.003906
30803.0,-6.757812,-6.765625,1.605469,-0.085938,-0.058594,0.027344,-0.013672,0.007812,0.001953
30843.0,-6.757812,-6.847656,1.566406,-0.046875,-0.050781,-0.011719,0.023438,0.005859,-0.005859
30858.0,-6.71875,-6.804688,1.605469,0.0,-0.050781,0.035156,0.033203,0.003906,-0.005859
30880.0,-6.71875,-6.730469,1.605469,0.0,0.066406,0.027344,0.029297,0.001953,0.0
30922.0,-6.71875,-6.765625,1.566406,0.0,0.027344,-0.027344,0.005859,0.0,0.0
30939.0,-6.757812,-6.765625,1.605469,0.0,-0.011719,0.011719,-0.005859,-0.007812,-0.005859
30960.0,-6.679688,-6.808594,1.605469,0.039062,-0.019531,0.011719,-0.019531,-0.013672,-0.005859
31002.0,-6.71875,-6.847656,1.605469,0.007812,-0.050781,0.011719,0.011719,-0.003906,0.001953
31039.0,-6.71875,-6.730469,1.605469,0.007812,0.019531,0.003906,0.037109,0.0,0.003906
31060.0,-6.757812,-6.730469,1.566406,0.007812,0.058594,-0.082031,0.017578,0.0,0.0
31074.0,-6.71875,-6.730469,1.605469,-0.03125,0.019531,-0.042969,0.007812,-0.003906,0.001953
31088.0,-6.71875,-6.765625,1.605469,0.007812,0.019531,-0.003906,-0.009766,-0.001953,-0.001953
31112.0,-6.71875,-6.847656,1.605469,0.0,-0.058594,-0.003906,-0.009766,-0.003906,-0.003906
31123.0,-6.71875,-6.804688,1.605469,0.0,-0.019531,-0.003906,0.001953,0.0,-0.005859
31152.0,-6.679688,-6.769531,1.605469,0.039062,0.019531,-0.003906,0.013672,0.001953,-0.005859
31169.0,-6.640625,-6.769531,1.605469,0.0,0.019531,-0.003906,0.019531,0.005859,-0.001953
31192.0,-6.796875,-6.730469,1.644531,-0.078125,0.058594,0.035156,0.009766,0.001953,-0.001953
31209.0,-6.796875,-6.804688,1.644531,-0.113281,-0.019531,0.074219,0.007812,0.003906,-0.001953
31232.0,-6.679688,-6.804688,1.644531,0.039062,-0.019531,0.035156,0.007812,0.011719,-0.005859
31249.0,-6.757812,-6.769531,1.644531,0.0,0.019531,-0.011719,0.019531,0.005859,0.0
31272.0,-6.796875,-6.804688,1.71875,-0.078125,-0.019531,0.101562,0.011719,0.0,-0.003906
31289.0,-6.71875,-6.808594,1.71875,-0.039062,-0.019531,0.101562,0.017578,-0.007812,0.0
31304.0,-6.757812,-6.808594,1.683594,0.007812,-0.019531,0.058594,0.025391,-0.003906,0.0
31320.0,-6.679688,-6.726562,1.605469,0.007812,0.011719,-0.027344,0.03125,-0.001953,0.0
31343.0,-6.679688,-6.769531,1.566406,0.046875,0.011719,-0.074219,0.017578,-0.003906,-0.001953
31360.0,-6.679688,-6.726562,1.605469,0.046875,0.019531,-0.074219,0.013672,0.001953,-0.003906
31383.0,-6.679688,-6.769531,1.605469,0.039062,0.019531,-0.035156,0.007812,0.005859,-0.001953
31400.0,-6.640625,-6.765625,1.683594,0.039062,0.011719,-0.035156,0.013672,0.017578,0.003906
31423.0,-6.71875,-6.769531,1.71875,-0.007812,0.011719,0.078125,0.025391,0.015625,0.001953
31439.0,-6.757812,-6.769531,1.683594,-0.039062,0.011719,0.042969,0.025391,0.009766,0.005859
31463.0,-6.71875,-6.726562,1.644531,0.0,0.050781,-0.003906,0.009766,0.007812,0.001953
31480.0,-6.71875,-6.765625,1.605469,0.0,0.050781,-0.042969,0.005859,0.011719,-0.001953
31503.0,-6.71875,-6.765625,1.566406,0.0,0.003906,-0.082031,0.003906,0.005859,0.0
31520.0,-6.757812,-6.769531,1.644531,0.0,0.003906,-0.042969,-0.007812,0.0,-0.007812
31540.0,-6.71875,-6.769531,1.644531,0.0,0.003906,-0.042969,-0.017578,0.001953,-0.013672
31561.0,-6.679688,-6.808594,1.605469,0.03125,-0.027344,0.003906,0.001953,0.011719,-0.017578
31590.0,-6.71875,-6.769531,1.644531,0.03125,0.011719,-0.027344,0.023438,0.003906,-0.007812
31613.0,-6.796875,-6.730469,1.71875,-0.09375,0.050781,0.085938,0.013672,0.003906,-0.009766
31623.0,-6.761719,-6.730469,1.71875,-0.054688,0.050781,0.085938,-0.003906,-0.001953,-0.007812
31653.0,-6.679688,-6.769531,1.566406,0.023438,0.003906,-0.074219,-0.005859,-0.001953,-0.009766
31670.0,-6.679688,-6.808594,1.605469,0.023438,0.011719,-0.035156,-0.011719,-0.003906,-0.001953
31693.0,-6.71875,-6.804688,1.605469,-0.015625,-0.027344,-0.027344,-0.013672,-0.005859,-0.001953
31710.0,-6.679688,-6.84375,1.605469,0.023438,-0.066406,0.003906,-0.005859,0.0,-0.007812
31733.0,-6.679688,-6.84375,1.566406,0.023438,-0.058594,-0.066406,0.011719,0.001953,-0.005859
31750.0,-6.679688,-6.804688,1.644531,0.023438,-0.058594,-0.027344,0.021484,0.005859,-0.001953
31765.0,-6.71875,-6.808594,1.644531,-0.023438,0.019531,0.011719,0.017578,0.001953,-0.003906
31804.0,-6.71875,-6.84375,1.683594,-0.023438,-0.050781,0.050781,-0.009766,-0.007812,-0.003906
31821.0,-6.640625,-6.847656,1.683594,0.023438,-0.050781,0.042969,-0.001953,-0.003906,-0.003906
31842.0,-6.640625,-6.847656,1.644531,0.0625,-0.050781,0.003906,0.009766,-0.001953,-0.003906
31882.0,-6.679688,-6.765625,1.644531,0.015625,0.035156,0.003906,0.021484,-0.001953,-0.003906
31923.0,-6.679688,-6.804688,1.644531,0.015625,-0.003906,-0.003906,0.001953,0.003906,0.0
31964.0,-6.71875,-6.769531,1.683594,-0.023438,0.035156,0.035156,0.007812,0.0,0.001953
31981.0,-6.71875,-6.769531,1.683594,-0.023438,0.035156,0.070312,0.003906,-0.001953,0.003906
32011.0,-6.71875,-6.769531,1.644531,-0.023438,0.027344,0.027344,0.005859,-0.005859,0.0
32034.0,-6.757812,-6.769531,1.644531,-0.0625,0.027344,-0.011719,0.0,-0.005859,0.001953
32051.0,-6.757812,-6.808594,1.644531,-0.023438,0.066406,0.027344,0.0,-0.001953,0.003906
32073.0,-6.679688,-6.769531,1.605469,0.023438,0.019531,-0.050781,-0.005859,0.0,0.0
32091.0,-6.679688,-6.804688,1.644531,0.023438,-0.019531,-0.011719,-0.017578,-0.001953,-0.005859
32113.0,-6.71875,-6.808594,1.683594,-0.015625,-0.019531,0.035156,-0.017578,-0.003906,-0.007812
32154.0,-6.71875,-6.726562,1.683594,-0.015625,0.058594,0.027344,0.023438,0.005859,0.001953
32194.0,-6.761719,-6.730469,1.644531,-0.054688,0.058594,-0.011719,0.0,0.0,0.001953
32211.0,-6.757812,-6.765625,1.605469,-0.054688,0.019531,-0.011719,0.011719,-0.001953,-0.001953
32233.0,-6.71875,-6.765625,1.605469,-0.007812,0.019531,-0.050781,0.001953,-0.003906,-0.001953
32266.0,-6.679688,-6.804688,1.644531,0.070312,-0.019531,-0.011719,-0.015625,-0.003906,-0.003906
32291.0,-6.640625,-6.84375,1.605469,0.070312,-0.019531,-0.011719,0.003906,0.001953,-0.015625
32312.0,-6.71875,-6.808594,1.644531,0.023438,-0.019531,0.027344,0.003906,0.001953,-0.013672
32345.0,-6.71875,-6.769531,1.683594,-0.015625,0.019531,0.027344,-0.003906,0.007812,-0.005859
32361.0,-6.71875,-6.765625,1.605469,0.023438,0.019531,-0.011719,0.007812,0.009766,-0.003906
32385.0,-6.71875,-6.769531,1.683594,-0.015625,0.027344,0.035156,0.0,0.0,0.0
32401.0,-6.71875,-6.769531,1.683594,-0.015625,0.027344,0.027344,-0.021484,-0.003906,-0.003906
32425.0,-6.71875,-6.808594,1.683594,-0.015625,-0.011719,0.035156,-0.019531,-0.009766,0.0
32442.0,-6.679688,-6.847656,1.71875,-0.015625,-0.011719,0.070312,-0.021484,-0.009766,-0.003906
32464.0,-6.71875,-6.84375,1.644531,-0.015625,-0.050781,-0.003906,0.005859,0.001953,-0.001953
32482.0,-6.71875,-6.84375,1.644531,-0.015625,-0.050781,-0.003906,0.009766,-0.003906,-0.003906
32501.0,-6.679688,-6.804688,1.644531,-0.054688,0.035156,-0.011719,0.001953,0.001953,0.009766
32522.0,-6.640625,-6.84375,1.605469,0.0625,-0.011719,-0.050781,0.009766,0.015625,0.007812
32541.0,-6.679688,-6.84375,1.605469,0.0625,-0.089844,-0.089844,0.025391,0.019531,0.0
32562.0,-6.679688,-6.730469,1.683594,0.023438,0.035156,-0.003906,-0.001953,0.011719,0.0
32576.0,-6.71875,-6.726562,1.683594,0.023438,0.066406,0.042969,-0.021484,0.011719,0.0
32592.0,-6.679688,-6.765625,1.71875,-0.015625,0.035156,0.078125,-0.035156,0.0,-0.005859
32615.0,-6.679688,-6.847656,1.71875,0.023438,-0.042969,0.070312,-0.021484,-0.005859,-0.007812
32632.0,-6.640625,-6.804688,1.683594,0.015625,-0.042969,0.070312,-0.009766,-0.009766,-0.005859
32655.0,-6.679688,-6.808594,1.605469,0.015625,-0.003906,-0.042969,-0.015625,-0.003906,0.001953
32671.0,-6.640625,-6.808594,1.566406,0.015625,-0.003906,-0.042969,-0.011719,-0.009766,0.001953
32696.0,-6.640625,-6.769531,1.605469,0.046875,0.035156,-0.042969,-0.013672,-0.007812,-0.003906
32712.0,-6.640625,-6.769531,1.605469,0.046875,0.035156,-0.074219,-0.015625,0.003906,-0.003906
32735.0,-6.679688,-6.808594,1.605469,0.0,-0.003906,-0.027344,-0.017578,0.013672,0.0
32766.0,-6.71875,-6.808594,1.644531,-0.039062,-0.035156,0.058594,-0.013672,0.0,-0.009766
32782.0,-6.71875,-6.84375,1.644531,-0.078125,0.003906,0.027344,-0.013672,0.001953,-0.009766
32804.0,-6.679688,-6.808594,1.605469,0.0,0.003906,-0.011719,-0.009766,0.001953,-0.007812
32846.0,-6.679688,-6.847656,1.644531,-0.007812,-0.027344,0.035156,-0.025391,-0.007812,-0.005859
32862.0,-6.640625,-6.847656,1.644531,0.039062,-0.066406,0.027344,-0.017578,-0.003906,0.001953
32886.0,-6.640625,-6.847656,1.644531,0.039062,-0.027344,0.027344,-0.015625,0.0,0.0
32902.0,-6.71875,-6.84375,1.644531,0.039062,-0.027344,-0.011719,-0.011719,0.0,-0.003906
32926.0,-6.71875,-6.886719,1.605469,-0.039062,-0.066406,-0.003906,-0.011719,-0.001953,-0.003906
32942.0,-6.679688,-6.882812,1.605469,-0.039062,-0.101562,-0.003906,0.005859,0.001953,0.0
32965.0,-6.640625,-6.84375,1.605469,0.046875,-0.011719,-0.011719,0.013672,-0.001953,0.005859
32996.0,-6.679688,-6.804688,1.644531,0.007812,0.019531,0.027344,0.0,0.0,0.007812
33023.0,-6.679688,-6.808594,1.605469,0.007812,0.019531,0.027344,0.005859,0.0,0.001953
33037.0,-6.679688,-6.769531,1.566406,0.007812,0.058594,-0.050781,0.011719,0.001953,0.007812
33075.0,-6.71875,-6.765625,1.605469,-0.03125,0.058594,-0.003906,0.0,-0.001953,0.007812
33092.0,-6.71875,-6.765625,1.605469,-0.03125,0.058594,0.035156,-0.013672,-0.009766,0.001953
33115.0,-6.679688,-6.808594,1.605469,0.015625,0.003906,-0.003906,-0.015625,-0.011719,0.001953
33155.0,-6.640625,-6.808594,1.605469,0.054688,0.003906,0.003906,-0.011719,-0.001953,0.007812
33195.0,-6.640625,-6.84375,1.605469,0.046875,-0.035156,0.003906,-0.003906,0.001953,0.0
33227.0,-6.679688,-6.84375,1.566406,-0.03125,-0.027344,0.011719,0.019531,0.001953,0.001953
33243.0,-6.71875,-6.804688,1.605469,-0.03125,0.011719,0.011719,0.005859,-0.001953,0.001953
33267.0,-6.71875,-6.808594,1.644531,-0.03125,0.003906,0.042969,0.001953,0.001953,0.007812
33283.0,-6.679688,-6.808594,1.605469,-0.023438,0.003906,0.003906,0.005859,0.007812,0.003906
33306.0,-6.679688,-6.769531,1.566406,0.015625,0.042969,-0.035156,0.013672,0.0,0.005859
33323.0,-6.679688,-6.726562,1.566406,-0.023438,0.082031,-0.074219,0.001953,0.0,0.001953
33347.0,-6.757812,-6.730469,1.605469,-0.0625,0.074219,-0.003906,-0.025391,-0.005859,-0.003906
33363.0,-6.761719,-6.730469,1.644531,-0.070312,0.074219,0.050781,-0.033203,-0.015625,-0.003906
33385.0,-6.679688,-6.765625,1.644531,0.015625,0.035156,0.058594,-0.037109,-0.013672,0.003906
33427.0,-6.679688,-6.84375,1.605469,0.015625,-0.050781,0.019531,0.0,0.007812,0.007812
33443.0,-6.71875,-6.84375,1.644531,-0.015625,-0.011719,-0.019531,-0.009766,0.0,0.005859
33466.0,-6.71875,-6.847656,1.605469,-0.015625,-0.050781,0.019531,-0.017578,-0.001953,-0.003906
33496.0,-6.640625,-6.804688,1.527344,0.0625,-0.003906,-0.058594,0.011719,0.0,-0.007812
33506.0,-6.640625,-6.765625,1.527344,0.0625,0.035156,-0.058594,0.021484,0.0,0.0
33524.0,-6.679688,-6.769531,1.566406,0.015625,0.074219,-0.058594,0.013672,0.007812,-0.003906
33553.0,-6.71875,-6.925781,1.453125,-0.0625,-0.082031,-0.085938,0.001953,0.017578,-0.011719
33576.0,-6.605469,-6.804688,1.527344,0.089844,0.003906,-0.050781,0.011719,0.021484,-0.007812
33587.0,-6.605469,-6.804688,1.527344,0.089844,0.003906,-0.050781,0.023438,0.029297,-0.015625
33616.0,-6.679688,-6.769531,1.605469,0.007812,0.042969,0.042969,0.019531,0.033203,-0.029297
33633.0,-6.796875,-6.730469,1.683594,-0.070312,0.050781,0.082031,0.03125,0.025391,-0.023438
33656.0,-6.832031,-6.730469,1.796875,-0.144531,0.089844,0.234375,0.019531,0.027344,-0.019531
33688.0,-6.722656,-6.695312,1.71875,-0.03125,0.117188,0.140625,0.001953,0.001953,-0.003906
33714.0,-6.71875,-6.726562,1.683594,-0.03125,0.082031,0.097656,-0.013672,-0.015625,-0.003906
33728.0,-6.679688,-6.765625,1.644531,0.007812,0.035156,0.011719,-0.025391,-0.025391,-0.003906
33744.0,-6.640625,-6.808594,1.605469,0.054688,0.035156,0.003906,-0.023438,-0.023438,-0.007812
33768.0,-6.640625,-6.84375,1.566406,0.046875,-0.050781,-0.035156,-0.009766,-0.013672,-0.007812
33783.0,-6.640625,-6.808594,1.605469,0.046875,-0.011719,-0.082031,-0.005859,-0.011719,0.001953
33807.0,-6.605469,-6.847656,1.527344,0.082031,-0.050781,-0.074219,-0.017578,-0.007812,0.0
33824.0,-6.640625,-6.84375,1.566406,0.074219,-0.042969,-0.082031,-0.011719,0.0,-0.007812
33846.0,-6.679688,-6.882812,1.605469,0.0,-0.082031,0.003906,0.0,0.003906,-0.005859
33857.0,-6.679688,-6.882812,1.605469,0.0,-0.082031,0.011719,0.011719,0.001953,-0.005859
33887.0,-6.679688,-6.808594,1.566406,0.0,0.003906,-0.035156,0.025391,0.007812,-0.005859
33905.0,-6.679688,-6.769531,1.605469,0.0,0.042969,-0.035156,0.017578,0.0,-0.009766
33935.0,-6.71875,-6.804688,1.566406,-0.007812,0.082031,-0.035156,-0.017578,0.003906,-0.017578
33967.0,-6.640625,-6.886719,1.644531,0.03125,-0.074219,0.050781,-0.03125,-0.001953,-0.011719
33996.0,-6.640625,-6.960938,1.605469,0.023438,-0.132812,0.019531,-0.021484,-0.005859,-0.009766
34007.0,-6.640625,-6.960938,1.566406,0.023438,-0.132812,-0.019531,0.0,0.003906,-0.011719
34024.0,-6.640625,-6.925781,1.605469,-0.015625,-0.132812,0.019531,0.019531,0.003906,-0.007812
34039.0,-6.679688,-6.882812,1.605469,-0.023438,-0.003906,0.011719,0.019531,0.001953,-0.009766
34054.0,-6.679688,-6.808594,1.605469,0.015625,-0.003906,0.011719,0.019531,0.0,-0.001953
34077.0,-6.679688,-6.808594,1.605469,-0.023438,0.035156,0.011719,0.007812,0.001953,0.0
34095.0,-6.640625,-6.808594,1.605469,-0.023438,0.035156,0.011719,-0.009766,-0.001953,0.001953
34117.0,-6.640625,-6.84375,1.566406,0.015625,-0.003906,-0.027344,-0.011719,-0.007812,0.0
34134.0,-6.640625,-6.882812,1.566406,0.015625,-0.042969,0.011719,-0.009766,-0.001953,-0.005859
34157.0,-6.679688,-6.882812,1.605469,-0.023438,-0.035156,0.019531,-0.007812,-0.003906,-0.003906
34174.0,-6.640625,-6.84375,1.566406,0.015625,-0.035156,0.019531,0.007812,0.001953,0.005859
34198.0,-6.640625,-6.84375,1.566406,0.015625,-0.003906,-0.027344,0.017578,0.001953,0.003906
34214.0,-6.679688,-6.882812,1.566406,0.015625,0.035156,-0.027344,0.017578,0.005859,0.0
34234.0,-6.679688,-6.882812,1.566406,-0.0625,-0.042969,-0.027344,-0.005859,0.0,0.0
34254.0,-6.640625,-6.84375,1.605469,-0.023438,-0.003906,0.011719,0.007812,0.0,0.003906
34269.0,-6.605469,-6.84375,1.566406,0.050781,0.003906,0.019531,0.005859,0.001953,0.003906
34285.0,-6.679688,-6.808594,1.605469,0.058594,0.042969,0.019531,0.017578,0.003906,0.005859
34308.0,-6.71875,-6.847656,1.605469,-0.054688,0.003906,0.011719,0.019531,0.001953,0.007812
34325.0,-6.71875,-6.808594,1.527344,-0.054688,0.035156,-0.074219,0.011719,0.003906,0.0
34348.0,-6.71875,-6.765625,1.566406,-0.054688,0.074219,-0.035156,0.011719,-0.003906,0.001953
34365.0,-6.679688,-6.808594,1.605469,-0.046875,0.035156,0.003906,-0.005859,-0.005859,0.001953
34388.0,-6.679688,-6.882812,1.566406,-0.007812,-0.042969,-0.035156,-0.005859,-0.005859,0.0
34405.0,-6.640625,-6.882812,1.566406,0.03125,-0.078125,-0.035156,0.001953,-0.005859,-0.003906
34428.0,-6.640625,-6.808594,1.605469,0.023438,0.035156,0.003906,0.003906,-0.003906,-0.003906
34445.0,-6.679688,-6.84375,1.605469,0.03125,0.035156,-0.035156,0.013672,0.0,-0.001953
34475.0,-6.71875,-6.804688,1.605469,-0.015625,-0.011719,0.011719,0.023438,0.001953,0.003906
34498.0,-6.679688,-6.808594,1.566406,-0.007812,0.027344,-0.035156,0.013672,0.001953,0.001953
34515.0,-6.71875,-6.808594,1.644531,-0.046875,0.027344,0.003906,-0.001953,-0.009766,-0.003906
34538.0,-6.679688,-6.882812,1.566406,-0.007812,-0.050781,-0.035156,-0.011719,-0.007812,-0.003906
34555.0,-6.640625,-6.882812,1.566406,0.03125,-0.011719,-0.035156,0.009766,-0.007812,-0.001953
34578.0,-6.640625,-6.84375,1.566406,0.023438,-0.011719,-0.035156,0.011719,-0.005859,-0.003906
34595.0,-6.640625,-6.84375,1.605469,0.023438,-0.011719,0.003906,0.023438,0.005859,-0.003906
34618.0,-6.679688,-6.808594,1.566406,-0.015625,0.027344,-0.042969,0.025391,0.001953,-0.001953
34635.0,-6.679688,-6.769531,1.605469,-0.015625,0.027344,-0.003906,0.005859,0.0,-0.003906
34658.0,-6.679688,-6.804688,1.644531,-0.015625,0.027344,0.035156,-0.001953,-0.001953,-0.001953
34698.0,-6.679688,-6.847656,1.644531,-0.015625,-0.011719,0.035156,-0.001953,-0.001953,-0.003906
34729.0,-6.679688,-6.847656,1.644531,-0.015625,-0.058594,-0.011719,-0.001953,0.0,-0.005859
34746.0,-6.679688,-6.882812,1.605469,-0.015625,-0.058594,-0.011719,0.011719,0.0,-0.003906
34767.0,-6.640625,-6.804688,1.644531,0.023438,0.027344,0.027344,0.015625,-0.001953,-0.005859
34778.0,-6.640625,-6.808594,1.566406,0.015625,0.027344,-0.058594,0.011719,-0.003906,-0.005859
34809.0,-6.640625,-6.886719,1.644531,0.015625,-0.050781,0.019531,0.001953,0.005859,-0.003906
34826.0,-6.640625,-6.84375,1.605469,0.015625,-0.011719,0.019531,0.0,-0.001953,-0.003906
34849.0,-6.640625,-6.804688,1.644531,0.015625,0.027344,0.019531,0.001953,-0.005859,-0.003906
34866.0,-6.640625,-6.804688,1.644531,0.015625,-0.011719,0.019531,0.0,-0.003906,0.0
34889.0,-6.640625,-6.886719,1.644531,0.015625,-0.050781,0.019531,0.0,0.003906,0.001953
34906.0,-6.640625,-6.882812,1.605469,-0.023438,-0.050781,0.019531,0.017578,0.0,-0.003906
34928.0,-6.640625,-6.808594,1.605469,0.015625,0.035156,-0.019531,0.013672,-0.001953,-0.003906
34946.0,-6.640625,-6.804688,1.644531,0.007812,0.035156,-0.019531,0.0,0.0,-0.001953
34960.0,-6.640625,-6.804688,1.644531,0.007812,0.035156,-0.019531,-0.003906,0.003906,-0.001953
34976.0,-6.679688,-6.84375,1.605469,-0.023438,-0.003906,-0.019531,-0.009766,0.003906,0.0
34999.0,-6.679688,-6.882812,1.566406,-0.023438,-0.042969,-0.058594,0.003906,-0.001953,-0.003906
35026.0,-6.640625,-6.804688,1.644531,0.007812,-0.042969,-0.019531,0.007812,0.0,0.001953
35040.0,-6.605469,-6.765625,1.644531,0.042969,0.035156,0.058594,-0.001953,-0.001953,0.001953
35056.0,-6.679688,-6.804688,1.683594,0.007812,0.074219,0.058594,-0.017578,0.0,0.0
35078.0,-6.640625,-6.925781,1.605469,0.007812,-0.078125,-0.011719,-0.011719,0.0,-0.001953
35096.0,-6.640625,-6.84375,1.605469,0.042969,-0.042969,-0.019531,0.009766,-0.003906,-0.003906
35118.0,-6.679688,-6.84375,1.605469,-0.03125,-0.003906,-0.019531,0.009766,-0.001953,-0.003906
35160.0,-6.640625,-6.882812,1.605469,0.007812,-0.042969,-0.019531,0.005859,-0.001953,0.001953
35176.0,-6.640625,-6.847656,1.644531,0.007812,-0.042969,0.019531,0.005859,0.0,-0.005859
35190.0,-6.640625,-6.804688,1.644531,0.007812,0.035156,0.019531,0.001953,0.0,-0.001953
35206.0,-6.640625,-6.886719,1.644531,0.042969,-0.003906,0.019531,-0.003906,-0.001953,-0.003906
35230.0,-6.640625,-6.886719,1.644531,0.007812,-0.042969,0.019531,0.007812,-0.001953,0.0
35246.0,-6.640625,-6.847656,1.644531,0.007812,-0.003906,-0.019531,0.013672,0.003906,0.0
35268.0,-6.679688,-6.804688,1.644531,-0.03125,0.035156,0.011719,0.011719,0.001953,0.003906
35310.0,-6.605469,-6.847656,1.644531,0.042969,-0.003906,0.011719,-0.005859,0.001953,0.0
35326.0,-6.605469,-6.84375,1.605469,0.007812,-0.003906,0.019531,-0.003906,0.001953,0.0
35350.0,-6.640625,-6.847656,1.644531,0.0,-0.003906,0.011719,0.001953,0.0,0.003906
35367.0,-6.640625,-6.808594,1.605469,0.0,-0.003906,-0.027344,0.005859,0.001953,0.0
35389.0,-6.679688,-6.808594,1.605469,-0.039062,0.035156,-0.027344,-0.001953,0.003906,0.0
35407.0,-6.679688,-6.847656,1.644531,-0.078125,-0.003906,0.011719,-0.019531,-0.001953,0.003906
35429.0,-6.640625,-6.886719,1.644531,0.007812,-0.042969,0.019531,-0.021484,-0.005859,-0.001953
35447.0,-6.605469,-6.886719,1.644531,0.007812,-0.042969,0.019531,-0.015625,-0.001953,0.0
35476.0,-6.679688,-6.886719,1.644531,-0.03125,-0.042969,-0.011719,0.001953,0.001953,-0.007812
35500.0,-6.640625,-6.808594,1.566406,0.007812,0.035156,-0.050781,0.007812,0.013672,-0.003906
35517.0,-6.71875,-6.765625,1.605469,-0.03125,0.042969,-0.050781,0.005859,0.013672,-0.003906
35540.0,-6.679688,-6.804688,1.644531,-0.03125,0.035156,0.027344,-0.017578,0.005859,0.001953
35557.0,-6.679688,-6.804688,1.644531,-0.03125,0.082031,0.027344,-0.027344,0.001953,-0.003906
35579.0,-6.679688,-6.886719,1.644531,-0.023438,-0.035156,0.035156,-0.021484,0.0,-0.007812
35597.0,-6.71875,-6.882812,1.644531,-0.023438,0.003906,0.035156,-0.021484,0.0,-0.005859
35619.0,-6.640625,-6.847656,1.644531,0.015625,0.003906,0.035156,-0.023438,-0.005859,0.0
35637.0,-6.640625,-6.847656,1.644531,0.015625,0.003906,0.035156,-0.007812,-0.001953,0.003906
35659.0,-6.605469,-6.84375,1.566406,0.050781,-0.003906,-0.042969,-0.005859,-0.003906,0.001953
35690.0,-6.640625,-6.808594,1.566406,0.015625,0.035156,-0.042969,-0.009766,0.001953,-0.003906
35707.0,-6.640625,-6.84375,1.605469,0.015625,0.003906,-0.042969,-0.013672,-0.003906,-0.003906
35731.0,-6.640625,-6.882812,1.605469,0.007812,-0.042969,0.003906,-0.013672,0.0,0.001953
35747.0,-6.640625,-6.84375,1.566406,0.007812,-0.042969,-0.035156,-0.005859,0.005859,-0.003906
35771.0,-6.605469,-6.84375,1.605469,0.042969,0.003906,0.011719,-0.005859,0.001953,-0.003906
35788.0,-6.605469,-6.847656,1.644531,0.082031,0.011719,0.011719,-0.013672,0.005859,-0.003906
35810.0,-6.679688,-6.84375,1.605469,-0.03125,0.011719,0.011719,-0.017578,0.005859,-0.007812
35828.0,-6.71875,-6.804688,1.605469,-0.03125,0.011719,-0.027344,0.0,0.009766,-0.007812
35851.0,-6.679688,-6.808594,1.605469,-0.03125,0.042969,0.011719,-0.011719,0.0,-0.009766
35868.0,-6.679688,-6.84375,1.605469,-0.039062,0.042969,0.011719,-0.021484,0.001953,-0.001953
35890.0,-6.640625,-6.882812,1.605469,0.0,-0.027344,0.019531,-0.029297,0.0,-0.003906
35908.0,-6.640625,-6.886719,1.644531,0.0,-0.035156,0.019531,-0.025391,-0.007812,-0.007812
35938.0,-6.605469,-6.882812,1.605469,0.035156,0.011719,0.027344,-0.017578,-0.001953,-0.007812
35961.0,-6.640625,-6.882812,1.566406,0.0,-0.027344,-0.011719,-0.007812,0.001953,-0.003906
35977.0,-6.640625,-6.84375,1.605469,0.0,-0.027344,0.019531,0.005859,0.0,-0.001953
36000.0,-6.640625,-6.84375,1.605469,0.0,0.019531,0.019531,-0.003906,-0.001953,-0.001953
36011.0,-6.640625,-6.84375,1.605469,0.0,0.019531,0.019531,-0.017578,0.001953,-0.003906
36028.0,-6.679688,-6.882812,1.605469,0.0,-0.019531,0.027344,-0.017578,-0.003906,-0.003906
36048.0,-6.640625,-6.921875,1.644531,-0.039062,-0.019531,0.066406,-0.005859,-0.003906,0.003906
36073.0,-6.566406,-6.882812,1.566406,0.066406,-0.019531,-0.019531,-0.001953,-0.001953,-0.003906
36097.0,-6.640625,-6.882812,1.566406,0.035156,-0.011719,-0.019531,0.001953,0.007812,-0.001953
36120.0,-6.640625,-6.847656,1.527344,0.0,0.027344,-0.058594,0.001953,0.005859,0.0
36151.0,-6.679688,-6.882812,1.566406,-0.046875,-0.019531,-0.019531,-0.005859,0.003906,0.003906
36168.0,-6.640625,-6.925781,1.605469,-0.007812,-0.019531,-0.011719,-0.017578,0.005859,0.003906
36192.0,-6.640625,-6.882812,1.566406,-0.007812,-0.019531,-0.011719,-0.013672,0.0,0.0
36208.0,-6.640625,-6.882812,1.566406,0.027344,-0.019531,-0.011719,-0.005859,0.003906,0.0
36230.0,-6.640625,-6.84375,1.566406,-0.007812,0.019531,-0.003906,0.0,0.001953,0.0
36271.0,-6.640625,-6.886719,1.527344,-0.007812,-0.019531,-0.042969,-0.015625,0.0,-0.001953
36288.0,-6.640625,-6.886719,1.527344,-0.007812,-0.019531,-0.042969,-0.011719,0.0,-0.001953
36311.0,-6.640625,-6.84375,1.566406,0.0,0.027344,0.003906,-0.009766,0.0,0.0
36328.0,-6.640625,-6.84375,1.605469,0.0,0.027344,0.003906,-0.011719,-0.005859,0.001953
36351.0,-6.640625,-6.921875,1.527344,0.0,-0.046875,-0.035156,-0.003906,0.001953,-0.001953
36391.0,-6.640625,-6.804688,1.527344,-0.007812,0.066406,-0.027344,-0.003906,-0.003906,0.0
36408.0,-6.605469,-6.804688,1.527344,-0.007812,0.066406,-0.027344,-0.009766,0.0,-0.005859
36423.0,-6.605469,-6.847656,1.527344,0.027344,0.027344,-0.027344,-0.003906,0.003906,-0.001953
36438.0,-6.605469,-6.921875,1.527344,0.027344,-0.011719,0.011719,0.0,0.003906,-0.007812
36461.0,-6.71875,-6.882812,1.527344,-0.085938,-0.011719,-0.027344,0.007812,0.009766,-0.009766
36478.0,-6.640625,-6.808594,1.566406,-0.007812,0.027344,-0.027344,0.001953,0.0,-0.001953
36502.0,-6.640625,-6.882812,1.566406,-0.007812,-0.011719,0.019531,0.0,0.0,-0.003906
36518.0,-6.640625,-6.921875,1.527344,-0.007812,-0.011719,-0.019531,-0.003906,0.003906,-0.009766
36542.0,-6.679688,-6.847656,1.527344,-0.054688,0.027344,-0.019531,-0.001953,-0.003906,-0.011719
36559.0,-6.640625,-6.847656,1.527344,-0.015625,-0.011719,0.019531,-0.007812,-0.001953,-0.011719
36581.0,-6.605469,-6.921875,1.527344,0.027344,-0.046875,-0.011719,0.001953,0.001953,-0.007812
36621.0,-6.640625,-6.882812,1.605469,-0.007812,-0.011719,0.058594,0.005859,0.003906,-0.013672
36653.0,-6.566406,-6.882812,1.566406,0.058594,-0.003906,0.019531,0.007812,0.003906,-0.015625
36668.0,-6.605469,-6.84375,1.566406,0.050781,0.035156,-0.019531,0.013672,0.003906,-0.007812
36691.0,-6.679688,-6.84375,1.605469,-0.0625,0.027344,0.050781,0.013672,-0.003906,-0.007812
36733.0,-6.605469,-6.921875,1.527344,0.011719,-0.039062,-0.035156,-0.003906,-0.003906,-0.009766
36749.0,-6.605469,-6.886719,1.527344,0.011719,-0.003906,-0.070312,0.001953,-0.005859,-0.003906
36771.0,-6.640625,-6.925781,1.566406,-0.03125,-0.039062,0.011719,0.001953,-0.001953,-0.001953
36802.0,-6.640625,-6.886719,1.527344,-0.03125,-0.003906,-0.035156,0.021484,0.003906,-0.003906
36820.0,-6.640625,-6.886719,1.527344,-0.03125,-0.003906,-0.035156,0.023438,0.001953,-0.011719
36850.0,-6.640625,-7.003906,1.492188,-0.023438,-0.109375,-0.070312,0.009766,0.001953,-0.011719
36883.0,-6.605469,-6.960938,1.566406,0.003906,-0.070312,0.003906,0.021484,0.003906,-0.015625
36900.0,-6.566406,-6.964844,1.527344,0.042969,-0.0625,0.003906,0.019531,0.013672,-0.015625
36922.0,-6.605469,-6.886719,1.492188,0.003906,0.019531,-0.0625,0.023438,0.013672,-0.017578
36939.0,-6.640625,-6.886719,1.527344,-0.070312,0.019531,-0.027344,0.021484,0.017578,-0.019531
36962.0,-6.71875,-7.0,1.453125,-0.117188,-0.085938,-0.101562,0.013672,0.021484,-0.023438
36979.0,-6.71875,-7.039062,1.453125,-0.070312,-0.117188,-0.132812,-0.001953,0.033203,-0.046875
37002.0,-6.796875,-6.964844,1.527344,-0.1875,-0.023438,-0.011719,-0.003906,0.035156,-0.046875
37022.0,-6.796875,-7.003906,1.453125,-0.1875,-0.054688,-0.078125,0.003906,0.050781,-0.048828
37042.0,-6.832031,-6.882812,1.453125,-0.214844,0.066406,-0.070312,0.021484,0.060547,-0.039062
37059.0,-6.867188,-6.847656,1.527344,-0.253906,0.066406,0.011719,0.029297,0.046875,-0.052734
37082.0,-6.796875,-6.804688,1.453125,-0.15625,0.160156,-0.054688,-0.048828,0.029297,-0.074219
37099.0,-6.910156,-7.039062,1.183594,-0.238281,0.089844,-0.125,-0.076172,0.070312,-0.148438
37114.0,-6.949219,-7.265625,0.914062,-0.429688,-0.46875,-0.828125,-0.078125,0.109375,-0.210938
37139.0,-6.832031,-7.191406,0.496094,-0.300781,-0.34375,-1.003906,-0.101562,0.166016,-0.371094
37154.0,-6.757812,-7.003906,0.722656,-0.117188,0.246094,-0.4375,-0.130859,0.193359,-0.367188
37169.0,-6.527344,-6.582031,1.296875,-0.066406,0.421875,-0.175781,-0.240234,0.195312,-0.371094
37191.0,-6.449219,-6.695312,1.527344,0.019531,0.5,0.253906,-0.28125,0.169922,-0.363281
37233.0,-6.335938,-7.1875,1.71875,0.078125,0.074219,0.539062,-0.070312,0.037109,-0.138672
37250.0,-6.257812,-7.0,1.71875,0.070312,0.160156,0.546875,-0.054688,-0.021484,-0.117188
37272.0,-6.449219,-7.082031,1.492188,-0.066406,0.226562,0.320312,-0.082031,-0.050781,-0.126953
37313.0,-5.992188,-7.265625,1.222656,0.351562,0.074219,0.066406,-0.09375,-0.130859,-0.068359
37330.0,-6.222656,-7.039062,1.261719,0.34375,0.152344,0.066406,0.007812,-0.152344,-0.039062
37352.0,-7.023438,-6.539062,1.796875,-0.707031,0.820312,0.609375,-0.144531,-0.322266,-0.060547
37370.0,-6.757812,-6.539062,1.757812,-0.628906,0.855469,0.609375,-0.341797,-0.460938,-0.052734
37385.0,-6.640625,-6.660156,1.644531,-0.230469,0.453125,0.402344,-0.394531,-0.494141,-0.052734
37400.0,-6.449219,-7.226562,1.796875,-0.160156,0.277344,0.441406,-0.398438,-0.603516,-0.066406
37422.0,-6.910156,-6.808594,2.027344,-0.660156,0.605469,0.792969,-0.386719,-0.691406,-0.050781
37432.0,-6.945312,-6.617188,2.027344,-0.707031,0.796875,0.761719,-0.404297,-0.884766,0.03125
37463.0,-6.988281,-6.695312,2.449219,-0.753906,0.71875,1.113281,-0.498047,-1.054688,0.140625
37473.0,-7.066406,-7.039062,2.640625,-0.835938,0.375,1.28125,-0.740234,-1.228516,0.121094
37503.0,-6.527344,-7.460938,2.257812,-0.332031,-0.039062,0.804688,-0.724609,-1.492188,0.123047
37520.0,-6.566406,-7.269531,2.140625,-0.339844,0.113281,0.648438,-0.628906,-1.554688,0.064453
37543.0,-6.757812,-7.535156,2.292969,-0.640625,-0.089844,0.660156,-0.785156,-1.6875,-0.083984
37560.0,-6.488281,-7.386719,1.949219,-0.519531,-0.066406,0.414062,-0.941406,-1.824219,-0.115234
37583.0,-5.722656,-7.648438,1.492188,0.246094,-0.113281,-0.3125,-0.990234,-1.833984,-0.144531
37593.0,-5.492188,-7.957031,1.414062,0.421875,-0.378906,-0.414062,-1.113281,-1.773438,-0.292969
37619.0,-5.035156,-9.070312,1.375,0.679688,-1.214844,-0.351562,-1.421875,-1.837891,-0.669922
37640.0,-4.765625,-9.5625,1.144531,0.699219,-1.539062,-0.5,-1.382812,-1.816406,-0.978516
37660.0,-4.421875,-10.566406,1.105469,0.863281,-2.257812,-0.90625,-1.402344,-1.685547,-1.265625
37701.0,-3.308594,-10.828125,0.609375,1.328125,-2.527344,-1.046875,-1.320312,-1.28125,-1.677734
37734.0,-3.003906,-10.605469,0.722656,1.144531,-1.851562,-0.761719,-1.052734,-0.929688,-1.847656
37751.0,-3.078125,-10.40625,0.953125,0.972656,-1.6875,-0.476562,-0.9375,-0.808594,-1.929688
37770.0,-3.308594,-9.835938,1.261719,0.382812,-1.011719,-0.183594,-0.796875,-0.738281,-1.943359
37790.0,-3.234375,-9.414062,1.261719,-0.066406,-0.433594,-0.050781,-0.486328,-0.707031,-1.900391
37814.0,-3.003906,-8.835938,1.644531,-0.332031,0.527344,0.472656,-0.394531,-0.654297,-1.837891
37831.0,-2.734375,-8.492188,1.796875,-0.386719,0.8125,0.609375,-0.462891,-0.654297,-1.783203
37845.0,-2.542969,-8.414062,1.71875,-0.3125,1.25,0.519531,-0.460938,-0.621094,-1.726562
37871.0,-2.273438,-8.109375,1.296875,-0.414062,1.375,0.429688,-0.335938,-0.539062,-1.484375
37885.0,-2.199219,-8.109375,1.296875,-0.636719,1.539062,0.277344,-0.328125,-0.560547,-1.378906
37901.0,-1.890625,-8.109375,1.222656,-0.617188,1.523438,0.300781,-0.310547,-0.583984,-1.169922
37923.0,-1.355469,-7.914062,0.992188,-0.308594,1.808594,0.09375,-0.287109,-0.574219,-1.085938
37941.0,-1.050781,-7.765625,0.722656,-0.21875,1.851562,0.003906,-0.1875,-0.529297,-0.78125
37964.0,-0.894531,-7.613281,0.300781,-0.183594,2.144531,-0.519531,-0.296875,-0.533203,-0.5625
37980.0,-0.511719,-7.847656,0.265625,-0.046875,2.039062,-0.523438,-0.535156,-0.535156,-0.417969
38004.0,-0.398438,-8.296875,0.339844,0.132812,1.480469,-0.300781,-0.599609,-0.427734,-0.328125
38033.0,-0.246094,-9.074219,0.570312,0.132812,1.257812,-0.121094,-0.595703,-0.353516,-0.201172
38047.0,-0.167969,-9.300781,0.417969,0.199219,0.726562,0.101562,-0.564453,-0.351562,-0.142578
38075.0,0.101562,-9.375,0.300781,0.574219,0.414062,-0.015625,-0.349609,-0.273438,0.027344
38101.0,-0.015625,-9.488281,0.265625,0.476562,0.375,0.039062,-0.3125,-0.199219,0.068359
38115.0,-0.128906,-9.484375,0.265625,0.261719,0.300781,0.109375,-0.380859,-0.226562,0.046875
38131.0,-0.015625,-9.523438,0.226562,0.300781,0.300781,0.148438,-0.457031,-0.220703,0.021484
38155.0,0.136719,-10.066406,0.1875,0.566406,-0.285156,0.195312,-0.410156,-0.044922,0.042969
38171.0,0.101562,-10.527344,0.074219,0.5,-0.511719,0.15625,-0.248047,0.033203,0.013672
38194.0,0.136719,-10.601562,0.074219,0.574219,-0.820312,0.167969,-0.017578,0.087891,-0.017578
38211.0,-0.09375,-10.261719,0.074219,0.492188,-0.675781,0.128906,0.101562,0.134766,-0.039062
38235.0,-0.167969,-9.945312,0.226562,0.246094,-0.167969,0.289062,0.121094,0.134766,-0.050781
38251.0,-0.167969,-9.945312,0.226562,0.246094,-0.175781,0.28125,0.128906,0.142578,-0.0625
38275.0,-0.128906,-9.90625,0.265625,0.261719,-0.136719,0.289062,0.154297,0.128906,-0.085938
38291.0,-0.207031,-9.796875,0.265625,0.207031,-0.0625,0.273438,0.126953,0.128906,-0.121094
38314.0,-0.285156,-9.605469,0.265625,0.058594,0.167969,0.242188,0.109375,0.09375,-0.126953
38331.0,-0.207031,-9.523438,0.300781,0.082031,0.207031,0.21875,0.076172,0.068359,-0.121094
38352.0,-0.09375,-9.527344,0.339844,0.203125,0.238281,0.324219,-0.015625,0.058594,-0.117188
38372.0,-0.128906,-9.566406,0.300781,0.152344,0.207031,0.285156,-0.033203,0.0625,-0.103516
38386.0,-0.207031,-9.605469,0.300781,0.050781,0.160156,0.292969,-0.025391,0.054688,-0.099609
38401.0,-0.246094,-9.5625,0.417969,0.035156,0.160156,0.292969,-0.013672,0.011719,-0.0625
38425.0,-0.246094,-9.601562,0.339844,-0.019531,0.160156,0.300781,-0.015625,-0.023438,-0.050781
38441.0,-0.246094,-9.527344,0.339844,-0.027344,0.152344,0.292969,-0.011719,-0.064453,-0.025391
38464.0,-0.167969,-9.488281,0.339844,0.042969,0.277344,0.300781,-0.025391,-0.09375,-0.015625
38504.0,-0.09375,-9.679688,0.300781,0.117188,0.074219,0.285156,-0.095703,-0.148438,-0.021484
38521.0,-0.09375,-9.722656,0.265625,0.109375,0.039062,0.292969,-0.087891,-0.181641,-0.003906
38544.0,-0.054688,-9.839844,0.1875,0.140625,-0.078125,0.203125,-0.082031,-0.189453,-0.003906
38576.0,0.023438,-9.800781,0.226562,0.210938,-0.03125,0.257812,-0.066406,-0.193359,-0.015625
38592.0,0.0625,-9.796875,0.1875,0.25,-0.039062,0.226562,-0.058594,-0.1875,-0.007812
38616.0,-0.015625,-9.757812,0.148438,0.171875,0.0,0.195312,-0.0625,-0.173828,-0.015625
38632.0,-0.09375,-9.640625,0.148438,0.171875,0.039062,0.203125,-0.076172,-0.173828,-0.019531
38655.0,-0.054688,-9.601562,0.109375,0.117188,0.152344,0.1875,-0.099609,-0.160156,-0.007812
38672.0,-0.054688,-9.640625,0.1875,0.15625,0.113281,0.195312,-0.074219,-0.144531,0.003906
38695.0,0.0625,-9.757812,0.109375,0.234375,-0.007812,0.210938,-0.0625,-0.162109,0.0
38712.0,-0.015625,-9.796875,0.035156,0.234375,-0.046875,0.136719,-0.027344,-0.152344,-0.005859
38736.0,-0.015625,-9.757812,0.148438,0.15625,-0.007812,0.265625,-0.033203,-0.144531,-0.017578
38752.0,-0.015625,-9.757812,0.109375,0.195312,-0.046875,0.226562,-0.048828,-0.142578,-0.021484
38775.0,-0.054688,-9.800781,0.109375,-0.007812,-0.085938,-0.085938,-0.058594,-0.132812,-0.03125
38792.0,-0.054688,-9.835938,0.109375,-0.015625,-0.085938,-0.113281,-0.072266,-0.140625,-0.046875
38813.0,-0.054688,-9.796875,0.1875,-0.023438,-0.085938,-0.03125,-0.080078,-0.162109,-0.066406
38832.0,0.023438,-9.835938,0.1875,-0.023438,-0.078125,0.03125,-0.068359,-0.164062,-0.080078
38862.0,0.023438,-9.679688,0.109375,0.023438,0.007812,-0.03125,-0.023438,-0.185547,-0.068359
38886.0,0.0625,-9.683594,-0.003906,0.039062,0.042969,-0.128906,-0.017578,-0.191406,-0.056641
38903.0,0.023438,-9.605469,-0.003906,0.03125,0.082031,-0.128906,-0.035156,-0.197266,-0.050781
38925.0,0.101562,-9.605469,-0.117188,0.054688,0.113281,-0.226562,-0.037109,-0.201172,-0.042969
38942.0,0.101562,-9.5625,-0.082031,0.007812,0.113281,-0.210938,-0.078125,-0.214844,-0.035156
38965.0,0.101562,-9.488281,-0.042969,0.03125,0.214844,-0.105469,-0.091797,-0.212891,-0.033203
38982.0,0.101562,-9.5625,-0.082031,0.066406,0.183594,-0.082031,-0.132812,-0.191406,-0.001953
39005.0,0.0625,-9.640625,-0.117188,-0.007812,0.042969,-0.117188,-0.130859,-0.189453,0.015625
39038.0,0.101562,-9.5625,-0.082031,0.046875,0.113281,-0.070312,-0.083984,-0.158203,0.044922
39077.0,0.101562,-9.640625,-0.15625,0.054688,0.027344,-0.0625,-0.066406,-0.117188,0.060547
39114.0,0.023438,-9.566406,-0.195312,0.0,0.082031,-0.070312,-0.050781,-0.097656,0.066406
39154.0,-0.054688,-9.523438,-0.117188,-0.046875,0.121094,0.054688,-0.111328,-0.109375,0.083984
39173.0,-0.054688,-9.457031,-0.15625,-0.046875,0.152344,0.070312,-0.142578,-0.134766,0.128906
39197.0,-0.128906,-9.457031,-0.195312,-0.074219,0.171875,0.03125,-0.15625,-0.150391,0.162109
39213.0,-0.207031,-9.417969,-0.195312,-0.097656,0.210938,0.046875,-0.162109,-0.148438,0.193359
39236.0,-0.359375,-9.179688,-0.234375,-0.226562,0.433594,0.054688,-0.179688,-0.154297,0.203125
39253.0,-0.511719,-9.03125,-0.234375,-0.320312,0.511719,0.070312,-0.183594,-0.199219,0.285156
39276.0,-0.703125,-8.722656,-0.308594,-0.453125,0.886719,0.050781,-0.201172,-0.212891,0.380859
39307.0,-0.78125,-8.53125,-0.386719,-0.398438,1.070312,0.027344,-0.203125,-0.224609,0.474609
39323.0,-0.972656,-8.375,-0.5,-0.382812,1.144531,-0.035156,-0.255859,-0.220703,0.619141
39347.0,-1.050781,-8.613281,-0.539062,-0.425781,0.96875,-0.023438,-0.330078,-0.228516,0.695312
39363.0,-0.894531,-8.878906,-0.578125,-0.238281,0.769531,-0.03125,-0.396484,-0.291016,0.767578
39387.0,-0.859375,-9.140625,-0.617188,0.0625,0.394531,0.046875,-0.513672,-0.292969,0.810547
39403.0,-1.164062,-9.261719,-0.808594,-0.003906,0.300781,0.019531,-0.521484,-0.1875,0.857422
39426.0,-1.203125,-9.757812,-0.921875,0.054688,-0.273438,-0.078125,-0.488281,-0.140625,0.873047
39456.0,-1.242188,-9.839844,-0.960938,0.265625,-0.40625,-0.03125,-0.240234,-0.072266,0.863281
39483.0,-1.585938,-9.722656,-1.0,0.15625,-0.285156,0.007812,-0.255859,-0.039062,0.853516
39507.0,-1.855469,-10.257812,-0.960938,0.050781,-0.914062,0.078125,-0.25,-0.013672,0.822266
39537.0,-1.890625,-10.832031,-1.269531,0.234375,-1.550781,-0.175781,-0.181641,-0.037109,0.738281
39553.0,-2.007812,-10.871094,-1.304688,0.21875,-1.640625,-0.203125,0.007812,-0.021484,0.5625
39578.0,-2.199219,-10.789062,-1.191406,0.128906,-1.558594,-0.089844,0.029297,-0.003906,0.414062
39593.0,-2.3125,-10.871094,-1.230469,0.054688,-1.605469,-0.128906,0.058594,0.019531,0.265625
39617.0,-2.238281,-10.871094,-1.191406,0.183594,-1.652344,-0.121094,0.171875,0.052734,0.140625
39634.0,-2.199219,-10.605469,-1.230469,0.238281,-1.535156,-0.214844,0.292969,0.056641,0.015625
39657.0,-2.351562,-10.023438,-1.269531,0.078125,-0.800781,-0.292969,0.328125,0.021484,-0.082031
39673.0,-2.429688,-9.640625,-1.191406,-0.007812,-0.601562,-0.359375,0.289062,0.009766,-0.138672
39697.0,-2.429688,-9.457031,-1.191406,-0.054688,-0.195312,-0.332031,0.287109,0.023438,-0.169922
39713.0,-2.429688,-9.257812,-1.078125,-0.0625,-0.148438,-0.308594,0.287109,0.019531,-0.183594
39736.0,-2.429688,-8.757812,-1.039062,-0.117188,0.519531,-0.273438,0.263672,0.007812,-0.144531
39754.0,-2.542969,-8.652344,-1.039062,-0.199219,0.601562,-0.296875,0.142578,-0.044922,-0.109375
39769.0,-2.46875,-8.613281,-1.0,-0.148438,0.617188,-0.242188,0.080078,-0.074219,-0.085938
39784.0,-2.3125,-8.839844,-0.960938,-0.078125,0.542969,-0.257812,0.025391,-0.095703,-0.042969
39807.0,-2.351562,-8.957031,-1.0,-0.085938,0.351562,-0.304688,0.019531,-0.076172,-0.025391
39824.0,-2.351562,-9.035156,-1.039062,-0.085938,0.320312,-0.351562,0.027344,-0.048828,0.015625
39847.0,-2.238281,-9.296875,-1.039062,0.035156,0.015625,-0.351562,0.007812,-0.058594,0.025391
39858.0,-2.121094,-9.484375,-1.039062,0.160156,-0.175781,-0.351562,-0.013672,-0.035156,0.041016
39887.0,-2.160156,-10.140625,-1.078125,0.128906,-0.828125,-0.390625,-0.001953,0.056641,0.019531
39927.0,-2.199219,-10.222656,-0.847656,0.042969,-0.890625,-0.214844,0.285156,0.300781,-0.152344
39959.0,-2.082031,-9.839844,-0.578125,0.082031,-0.476562,-0.015625,0.359375,0.326172,-0.28125
39975.0,-2.082031,-9.761719,-0.539062,0.058594,-0.398438,0.0,0.373047,0.287109,-0.298828
39999.0,-2.273438,-9.375,-0.308594,-0.183594,0.128906,0.257812,0.326172,0.169922,-0.300781
40014.0,-2.082031,-9.035156,-0.273438,-0.066406,0.214844,0.15625,0.308594,0.091797,-0.291016
40032.0,-1.929688,-8.957031,-0.347656,-0.089844,0.375,0.125,0.306641,0.078125,-0.269531
40047.0,-1.890625,-8.800781,-0.308594,0.03125,0.628906,0.019531,0.300781,0.083984,-0.244141
40076.0,-1.777344,-8.335938,-0.347656,0.105469,1.097656,-0.097656,0.267578,0.0625,-0.105469
40118.0,-2.273438,-8.300781,-0.308594,-0.382812,1.136719,-0.089844,-0.080078,-0.068359,0.087891
40134.0,-2.3125,-8.457031,-0.117188,-0.375,1.058594,-0.007812,-0.242188,-0.083984,0.177734
40158.0,-2.199219,-9.140625,-0.003906,-0.246094,0.285156,0.292969,-0.308594,-0.068359,0.228516
40174.0,-2.238281,-9.601562,-0.042969,-0.183594,0.007812,0.277344,-0.253906,-0.072266,0.230469
40198.0,-2.273438,-9.757812,-0.117188,-0.234375,-0.359375,0.265625,-0.171875,-0.080078,0.214844
40215.0,-2.199219,-9.835938,-0.234375,-0.183594,-0.359375,0.203125,-0.117188,-0.027344,0.197266
40230.0,-2.199219,-9.835938,-0.273438,-0.066406,-0.484375,0.113281,-0.083984,-0.011719,0.179688
40255.0,-2.160156,-9.835938,-0.386719,0.011719,-0.5,0.050781,-0.074219,-0.015625,0.119141
40275.0,-2.199219,-9.722656,-0.464844,-0.042969,-0.382812,0.027344,-0.101562,-0.023438,0.078125
40295.0,-2.351562,-9.605469,-0.308594,-0.042969,-0.351562,0.003906,-0.123047,-0.041016,0.058594
40315.0,-2.238281,-9.605469,-0.273438,-0.09375,-0.199219,0.21875,-0.089844,-0.048828,0.046875
40336.0,-2.121094,-9.644531,-0.347656,-0.058594,-0.238281,0.226562,-0.037109,-0.044922,0.023438
40349.0,-2.121094,-9.5625,-0.386719,0.074219,-0.121094,0.042969,-0.013672,-0.039062,0.021484
40364.0,-2.238281,-9.339844,-0.578125,-0.003906,-0.046875,0.007812,-0.003906,-0.048828,0.021484
40388.0,-2.238281,-9.21875,-0.730469,-0.035156,0.144531,-0.222656,-0.013672,-0.046875,0.023438
40405.0,-2.238281,-9.144531,-0.730469,-0.035156,0.183594,-0.175781,-0.041016,-0.033203,0.042969
40428.0,-2.160156,-9.257812,-0.730469,0.058594,0.097656,-0.207031,-0.078125,-0.009766,0.060547
40444.0,-2.199219,-9.335938,-0.617188,0.066406,0.0625,-0.160156,-0.089844,0.025391,0.074219
40468.0,-2.238281,-9.417969,-0.539062,0.011719,-0.0625,0.023438,-0.076172,0.027344,0.078125
40499.0,-2.238281,-9.484375,-0.539062,0.027344,-0.144531,0.039062,-0.066406,0.025391,0.072266
40515.0,-2.3125,-9.484375,-0.539062,0.0,-0.144531,0.007812,-0.041016,0.03125,0.066406
40537.0,-2.390625,-9.488281,-0.539062,-0.101562,-0.152344,0.054688,-0.037109,0.033203,0.0625
40548.0,-2.429688,-9.414062,-0.539062,-0.132812,-0.078125,0.0625,-0.011719,0.035156,0.044922
40565.0,-2.429688,-9.300781,-0.425781,-0.171875,-0.039062,0.136719,-0.029297,0.013672,0.039062
40586.0,-2.351562,-9.296875,-0.5,-0.039062,0.039062,0.136719,-0.048828,-0.013672,0.037109
40619.0,-2.351562,-9.378906,-0.65625,-0.03125,-0.039062,-0.039062,-0.029297,-0.009766,0.025391
40635.0,-2.390625,-9.261719,-0.691406,-0.023438,-0.007812,-0.105469,-0.013672,-0.003906,0.033203
40659.0,-2.429688,-9.144531,-0.65625,-0.15625,0.222656,-0.078125,-0.042969,-0.007812,0.044922
40676.0,-2.429688,-9.105469,-0.730469,-0.148438,0.261719,-0.113281,-0.070312,-0.009766,0.060547
40698.0,-2.46875,-9.257812,-0.730469,-0.164062,0.082031,-0.121094,-0.097656,-0.017578,0.066406
40729.0,-2.390625,-9.378906,-0.691406,-0.054688,-0.039062,-0.042969,-0.125,-0.021484,0.072266
40746.0,-2.351562,-9.414062,-0.691406,-0.046875,-0.085938,-0.035156,-0.095703,-0.015625,0.068359
40768.0,-2.429688,-9.375,-0.769531,-0.0625,-0.054688,-0.082031,-0.085938,-0.015625,0.068359
40786.0,-2.46875,-9.378906,-0.769531,-0.054688,-0.046875,-0.027344,-0.083984,-0.041016,0.068359
40809.0,-2.429688,-9.453125,-0.808594,-0.023438,-0.132812,-0.082031,-0.083984,-0.050781,0.060547
40826.0,-2.429688,-9.378906,-0.691406,-0.023438,-0.09375,-0.035156,-0.09375,-0.050781,0.042969
40848.0,-2.503906,-9.335938,-0.691406,-0.074219,-0.015625,0.066406,-0.085938,-0.056641,0.037109
40866.0,-2.46875,-9.300781,-0.730469,-0.066406,0.023438,0.074219,-0.042969,-0.052734,0.042969
40889.0,-2.503906,-9.335938,-0.847656,-0.050781,-0.023438,-0.074219,-0.03125,-0.044922,0.048828
40906.0,-2.503906,-9.257812,-0.886719,-0.082031,0.023438,-0.105469,-0.011719,-0.027344,0.052734
40928.0,-2.621094,-9.183594,-0.886719,-0.136719,0.128906,-0.105469,-0.013672,-0.033203,0.056641
40960.0,-2.582031,-9.144531,-0.921875,-0.066406,0.152344,-0.125,-0.037109,-0.046875,0.068359
40976.0,-2.582031,-9.183594,-0.886719,-0.097656,0.113281,-0.125,-0.046875,-0.044922,0.080078
41000.0,-2.582031,-9.183594,-0.886719,-0.027344,0.097656,-0.066406,-0.052734,-0.037109,0.083984
41021.0,-2.660156,-9.144531,-0.886719,-0.011719,0.128906,-0.058594,-0.058594,-0.041016,0.085938
41046.0,-2.695312,-9.140625,-0.960938,-0.101562,0.144531,-0.035156,-0.099609,-0.072266,0.095703
41080.0,-2.773438,-9.179688,-0.886719,-0.125,0.042969,0.003906,-0.095703,-0.080078,0.111328
41097.0,-2.695312,-9.21875,-0.847656,-0.109375,0.027344,0.089844,-0.072266,-0.101562,0.115234
41118.0,-2.734375,-9.300781,-0.808594,-0.023438,-0.101562,0.105469,-0.056641,-0.091797,0.117188
41159.0,-2.8125,-9.296875,-0.808594,-0.054688,-0.109375,0.105469,-0.023438,-0.121094,0.123047
41177.0,-2.851562,-9.222656,-0.808594,-0.078125,-0.074219,0.058594,0.0,-0.158203,0.136719
41207.0,-2.8125,-8.957031,-0.808594,0.054688,0.179688,0.035156,0.019531,-0.1875,0.197266
41229.0,-2.851562,-8.917969,-0.769531,0.046875,0.234375,0.082031,0.003906,-0.203125,0.220703
41247.0,-2.925781,-8.957031,-0.691406,-0.003906,0.179688,0.121094,-0.033203,-0.296875,0.318359
41269.0,-2.886719,-8.917969,-0.808594,0.128906,0.1875,0.019531,-0.050781,-0.339844,0.351562
41286.0,-2.773438,-9.070312,-0.886719,0.210938,0.101562,-0.066406,-0.041016,-0.4375,0.462891
41310.0,-2.46875,-9.300781,-0.886719,0.726562,-0.25,-0.089844,-0.037109,-0.496094,0.476562
41326.0,-2.390625,-9.335938,-0.960938,0.820312,-0.265625,-0.066406,0.029297,-0.537109,0.470703
41339.0,-2.390625,-9.296875,-0.921875,0.953125,-0.296875,-0.179688,0.082031,-0.546875,0.478516
41366.0,-2.46875,-9.03125,-1.191406,0.925781,-0.101562,-0.414062,0.242188,-0.626953,0.550781
41390.0,-2.351562,-9.035156,-1.496094,1.234375,-0.117188,-0.957031,0.314453,-0.566406,0.574219
41407.0,-2.773438,-8.917969,-1.421875,1.027344,-0.0625,-0.976562,0.345703,-0.554688,0.611328
41422.0,-2.851562,-8.800781,-1.421875,0.871094,0.128906,-0.960938,0.392578,-0.542969,0.648438
41446.0,-3.042969,-8.378906,-0.960938,0.917969,0.273438,-0.8125,0.503906,-0.505859,0.771484
41461.0,-3.15625,-8.300781,-0.769531,0.660156,0.515625,-0.550781,0.53125,-0.484375,0.822266
41477.0,-3.691406,-8.148438,-0.691406,0.546875,0.515625,-0.621094,0.568359,-0.460938,0.914062
41500.0,-4.191406,-8.191406,-0.464844,0.128906,0.398438,-0.589844,0.558594,-0.505859,1.001953
41517.0,-4.6875,-8.191406,0.035156,-0.121094,0.351562,-0.359375,0.515625,-0.578125,1.103516
41539.0,-5.109375,-8.265625,0.300781,-0.421875,0.117188,-0.113281,0.519531,-0.683594,1.201172
41580.0,-5.378906,-8.648438,0.417969,-0.277344,-0.539062,-0.316406,0.574219,-0.785156,1.402344
41597.0,-5.609375,-8.378906,0.722656,-0.242188,-0.5,-0.289062,0.439453,-0.955078,1.523438
41620.0,-5.835938,-8.339844,1.222656,-0.304688,-0.566406,0.144531,0.285156,-1.201172,1.580078
41637.0,-5.800781,-8.492188,1.492188,-0.113281,-0.699219,0.125,0.212891,-1.341797,1.59375
41660.0,-6.257812,-8.609375,1.757812,-0.296875,-1.21875,0.304688,0.236328,-1.498047,1.601562
41679.0,-6.640625,-8.570312,1.875,-0.507812,-1.375,0.195312,0.298828,-1.564453,1.580078
41697.0,-6.949219,-8.613281,1.644531,-0.386719,-1.59375,-0.128906,0.505859,-1.533203,1.417969
41717.0,-7.714844,-8.691406,1.71875,-0.980469,-1.78125,-0.351562,0.482422,-1.583984,1.324219
41732.0,-7.867188,-8.722656,1.757812,-1.597656,-1.890625,-0.394531,0.486328,-1.636719,1.3125
41748.0,-8.328125,-8.453125,2.410156,-1.660156,-1.914062,-0.351562,0.484375,-1.660156,1.271484
41759.0,-8.636719,-8.378906,2.714844,-2.039062,-1.949219,-0.042969,0.464844,-1.669922,1.228516
41787.0,-8.019531,-8.609375,3.097656,-1.679688,-2.28125,-0.046875,0.644531,-1.314453,1.128906
41812.0,-7.636719,-8.152344,3.367188,-0.894531,-2.179688,-0.039062,0.837891,-0.890625,0.964844
41850.0,-9.246094,-6.847656,4.476562,-2.378906,-1.207031,0.75,0.779297,-0.298828,0.707031
41890.0,-9.480469,-5.925781,5.589844,-2.492188,-0.457031,1.761719,0.113281,-0.125,0.478516
41922.0,-9.285156,-6.386719,6.046875,-2.246094,-0.964844,2.242188,-0.232422,0.011719,0.214844
41937.0,-9.242188,-6.042969,6.203125,-2.125,-0.917969,2.25,-0.126953,0.035156,-0.058594
41962.0,-9.785156,-5.160156,5.972656,-2.730469,0.308594,2.199219,-0.046875,0.046875,-0.226562
41977.0,-9.980469,-4.96875,5.894531,-2.890625,0.484375,2.246094,-0.056641,-0.005859,-0.216797
42001.0,-10.28125,-4.585938,5.742188,-3.257812,0.960938,1.96875,-0.060547,-0.072266,-0.169922
42018.0,-10.363281,-4.203125,5.589844,-3.417969,1.167969,2.0,-0.070312,-0.197266,-0.099609
42041.0,-9.902344,-3.667969,5.359375,-2.90625,1.933594,1.546875,-0.304688,-0.371094,0.017578
42057.0,-9.78125,-3.628906,5.246094,-2.800781,1.980469,1.492188,-0.654297,-0.578125,0.085938
42081.0,-9.28125,-4.164062,4.824219,-2.332031,1.515625,0.980469,-0.919922,-0.744141,0.142578
42098.0,-8.898438,-4.472656,4.632812,-2.125,1.316406,0.824219,-1.005859,-0.833984,0.253906
42121.0,-8.175781,-4.703125,4.285156,-1.269531,1.0625,0.433594,-0.925781,-0.828125,0.333984
42161.0,-7.023438,-4.546875,3.789062,-0.144531,1.25,-0.125,-0.792969,-0.939453,0.412109
42178.0,-6.527344,-4.355469,3.636719,0.003906,1.324219,-0.1875,-0.720703,-1.017578,0.410156
42198.0,-5.535156,-3.707031,3.175781,1.015625,1.9375,-0.746094,-0.882812,-1.107422,0.375
42218.0,-5.339844,-3.667969,2.984375,1.402344,2.113281,-0.917969,-1.142578,-1.244141,0.371094
42232.0,-5.300781,-3.589844,2.832031,1.472656,2.382812,-1.339844,-1.25,-1.326172,0.367188
42248.0,-5.152344,-3.746094,2.449219,1.546875,2.332031,-1.476562,-1.347656,-1.410156,0.310547
42261.0,-5.109375,-3.820312,2.410156,1.554688,2.132812,-1.738281,-1.345703,-1.431641,0.289062
42287.0,-4.570312,-3.78125,2.410156,1.820312,2.203125,-1.777344,-1.158203,-1.310547,0.220703
42311.0,-4.308594,-3.515625,2.21875,2.15625,2.601562,-2.015625,-1.123047,-1.248047,0.220703
42328.0,-3.921875,-3.628906,2.257812,2.363281,2.597656,-1.949219,-1.167969,-1.267578,0.279297
42352.0,-3.578125,-3.78125,2.257812,2.75,2.445312,-2.023438,-1.105469,-1.226562,0.300781
42368.0,-3.769531,-4.011719,2.179688,2.679688,2.320312,-2.070312,-0.982422,-1.171875,0.296875
42381.0,-3.769531,-4.203125,2.101562,2.464844,2.09375,-2.210938,-0.916016,-1.152344,0.302734
42408.0,-3.882812,-4.511719,2.140625,2.324219,1.816406,-2.277344,-0.855469,-1.0625,0.310547
42423.0,-3.882812,-4.546875,2.179688,2.15625,1.804688,-2.226562,-0.873047,-1.013672,0.3125
42448.0,-4.074219,-4.734375,2.292969,2.070312,1.726562,-2.148438,-1.044922,-0.908203,0.333984
42463.0,-4.191406,-4.933594,2.484375,1.917969,1.382812,-1.734375,-1.117188,-0.886719,0.357422
42478.0,-4.34375,-5.394531,2.792969,1.824219,1.253906,-1.632812,-1.251953,-0.816406,0.408203
42502.0,-4.496094,-6.277344,3.097656,1.496094,0.25,-1.113281,-1.316406,-0.744141,0.470703
42518.0,-4.613281,-6.84375,3.328125,1.457031,0.007812,-0.988281,-1.275391,-0.642578,0.511719
42542.0,-4.613281,-7.652344,3.558594,1.394531,-1.050781,-0.464844,-1.220703,-0.589844,0.523438
42559.0,-4.613281,-7.992188,3.671875,1.410156,-1.234375,-0.339844,-1.060547,-0.474609,0.496094
42581.0,-4.84375,-8.375,3.75,1.210938,-1.753906,-0.109375,-0.992188,-0.445312,0.486328
42621.0,-5.453125,-8.722656,3.75,0.65625,-2.089844,0.03125,-0.623047,-0.21875,0.427734
42639.0,-5.492188,-8.839844,3.75,0.601562,-2.136719,0.054688,-0.482422,-0.095703,0.408203
42654.0,-5.453125,-8.878906,3.789062,0.792969,-2.34375,0.261719,-0.429688,-0.033203,0.384766
42679.0,-5.109375,-8.796875,3.867188,1.023438,-2.246094,0.28125,-0.292969,0.105469,0.271484
42693.0,-5.070312,-8.691406,3.789062,1.292969,-2.039062,0.179688,-0.255859,0.123047,0.216797
42732.0,-4.878906,-7.570312,3.367188,1.402344,-0.996094,-0.078125,-0.136719,0.175781,0.021484
42772.0,-5.226562,-7.003906,3.0625,1.039062,-0.367188,-0.28125,-0.164062,0.236328,-0.144531
42789.0,-5.226562,-6.808594,3.023438,1.03125,-0.238281,-0.289062,-0.185547,0.304688,-0.152344
42812.0,-5.378906,-6.660156,3.0625,0.871094,0.039062,-0.148438,-0.191406,0.371094,-0.123047
42829.0,-5.417969,-6.695312,3.136719,0.832031,0.015625,-0.035156,-0.226562,0.394531,-0.080078
42852.0,-5.378906,-6.882812,3.367188,0.878906,-0.144531,0.3125,-0.248047,0.394531,-0.056641
42872.0,-5.378906,-6.964844,3.445312,0.886719,-0.210938,0.4375,-0.326172,0.339844,-0.029297
42899.0,-5.1875,-7.265625,3.597656,0.980469,-0.441406,0.722656,-0.347656,0.275391,-0.042969
42924.0,-5.261719,-7.382812,3.519531,1.011719,-0.554688,0.761719,-0.320312,0.271484,-0.076172
42939.0,-5.644531,-7.386719,3.328125,0.855469,-0.578125,0.65625,-0.265625,0.261719,-0.125
42963.0,-6.488281,-6.847656,3.289062,-0.230469,0.042969,0.671875,-0.273438,0.220703,-0.117188
42980.0,-6.679688,-6.539062,3.289062,-0.421875,0.210938,0.75,-0.400391,0.09375,0.007812
43003.0,-6.601562,-6.082031,3.328125,-0.355469,0.855469,0.84375,-0.582031,-0.056641,0.107422
43025.0,-6.90625,-5.621094,3.253906,-0.5,1.054688,0.882812,-0.763672,-0.246094,0.275391
43049.0,-7.449219,-4.933594,3.636719,-0.875,1.820312,1.269531,-1.119141,-0.53125,0.654297
43069.0,-8.054688,-4.355469,3.289062,-1.46875,2.28125,1.316406,-1.429688,-0.867188,1.033203
43083.0,-8.097656,-4.164062,3.0625,-1.753906,2.9375,0.828125,-1.634766,-1.050781,1.242188
43100.0,-8.058594,-3.9375,2.792969,-1.527344,2.808594,0.722656,-1.857422,-1.205078,1.582031
43116.0,-7.710938,-4.28125,2.332031,-1.464844,2.789062,0.714844,-1.863281,-1.162109,1.673828
43140.0,-7.753906,-5.125,1.949219,-0.769531,1.597656,0.402344,-1.900391,-0.777344,1.816406
43155.0,-7.984375,-5.507812,1.757812,-1.105469,0.40625,-0.144531,-1.970703,-0.642578,1.841797
43179.0,-8.515625,-7.535156,1.605469,-1.398438,-0.9375,0.058594,-1.966797,-0.404297,1.710938
43209.0,-7.410156,-9.035156,1.222656,0.136719,-3.011719,-0.105469,-1.898438,-0.271484,1.058594
43232.0,-7.0625,-10.40625,0.761719,0.601562,-4.707031,-0.386719,-1.78125,-0.427734,0.648438
43250.0,-6.832031,-11.0625,1.527344,0.667969,-5.027344,0.144531,-0.931641,-0.714844,-0.605469
43273.0,-6.988281,-9.679688,2.984375,0.503906,-3.738281,1.84375,-0.748047,-0.955078,-1.357422
43289.0,-7.90625,-7.917969,2.449219,0.089844,-2.730469,1.890625,-0.744141,-1.0,-1.851562
43302.0,-8.40625,-7.691406,2.066406,-1.273438,-1.332031,0.832031,-0.794922,-0.939453,-2.046875
43330.0,-8.859375,-8.570312,2.027344,-2.042969,-1.921875,0.546875,-1.367188,-1.328125,-2.306641
43353.0,-6.988281,-7.082031,2.984375,-0.699219,0.125,1.765625,-1.607422,-1.564453,-2.306641
43370.0,-6.21875,-4.394531,3.828125,-0.410156,1.476562,2.308594,-2.488281,-1.542969,-1.785156
43383.0,-5.613281,-3.9375,3.40625,1.007812,2.894531,0.988281,-2.146484,-1.263672,-1.84375
43424.0,-5.417969,-10.023438,-0.386719,-0.277344,-1.886719,-1.160156,-0.355469,-0.429688,-2.015625
43439.0,-6.066406,-8.648438,0.339844,-0.5625,-1.210938,-0.976562,0.900391,0.003906,-1.626953
43464.0,-6.03125,-6.460938,2.292969,-1.429688,1.964844,1.246094,1.205078,-0.058594,-1.308594
43480.0,-5.148438,-5.3125,2.066406,-1.085938,2.5625,1.199219,1.197266,-0.248047,-0.503906
43502.0,-4.652344,-4.433594,1.03125,-0.242188,4.035156,-0.460938,0.894531,-0.099609,-0.236328
43544.0,-4.6875,-6.886719,1.335938,-0.351562,1.589844,-0.3125,-0.164062,-0.363281,-0.134766
43560.0,-4.113281,-7.230469,1.527344,-0.144531,1.371094,-0.15625,-0.306641,-0.59375,-0.015625
43584.0,-3.386719,-7.847656,1.296875,0.894531,0.65625,-0.34375,-0.453125,-0.59375,0.003906
43601.0,-3.042969,-8.535156,1.222656,0.996094,0.359375,-0.363281,-0.652344,-0.638672,-0.066406
43615.0,-2.851562,-8.835938,1.183594,1.546875,-0.539062,-0.347656,-0.667969,-0.666016,-0.041016
43630.0,-2.582031,-9.488281,1.375,1.644531,-0.757812,-0.210938,-0.492188,-0.619141,0.095703
43655.0,-2.660156,-9.683594,1.414062,1.566406,-1.136719,-0.101562,-0.292969,-0.576172,0.130859
43671.0,-2.964844,-9.378906,1.566406,1.492188,-0.980469,-0.023438,-0.148438,-0.583984,0.101562
43693.0,-3.578125,-8.878906,1.527344,0.632812,-0.339844,-0.035156,-0.074219,-0.587891,0.095703
43734.0,-4.34375,-7.847656,1.453125,-0.132812,0.671875,-0.226562,0.044922,-0.603516,0.111328
43750.0,-4.613281,-7.464844,1.453125,-0.324219,0.894531,-0.210938,-0.181641,-0.691406,0.226562
43774.0,-4.613281,-7.230469,1.644531,-0.386719,1.261719,-0.082031,-0.488281,-0.859375,0.310547
43790.0,-4.535156,-7.464844,1.910156,-0.332031,1.214844,0.117188,-0.761719,-1.048828,0.345703
43803.0,-4.535156,-7.730469,1.875,-0.277344,0.75,0.1875,-0.810547,-1.117188,0.324219
43844.0,-6.335938,-9.910156,1.414062,-2.078125,-1.417969,-0.179688,-0.863281,-1.216797,0.169922
43861.0,-6.757812,-11.023438,2.484375,-2.515625,-2.054688,0.28125,-1.494141,-1.480469,0.300781
43882.0,-5.417969,-10.984375,3.0625,-2.523438,-2.5,0.984375,-1.476562,-1.517578,0.761719
43900.0,-4.152344,-10.828125,2.257812,-0.351562,-2.40625,1.367188,-0.810547,-1.160156,0.800781
43923.0,-4.613281,-9.839844,1.988281,-0.136719,-1.398438,0.683594,-0.027344,-0.773438,0.542969
43965.0,-7.253906,-6.539062,3.597656,-2.652344,1.78125,2.011719,0.628906,-0.878906,0.582031
43981.0,-7.0625,-5.542969,3.710938,-2.621094,2.316406,1.992188,0.277344,-1.267578,0.636719
44004.0,-6.375,-5.46875,3.40625,-1.648438,2.726562,1.507812,-0.414062,-1.478516,0.628906
44021.0,-6.183594,-6.082031,3.175781,-1.507812,2.472656,1.375,-0.996094,-1.640625,0.71875
44045.0,-5.609375,-7.042969,2.90625,-0.757812,1.078125,1.0,-1.191406,-1.746094,0.943359
44062.0,-5.453125,-7.265625,2.984375,-0.59375,0.902344,1.0,-1.056641,-1.75,1.15625
44078.0,-5.226562,-7.191406,3.0625,-0.5,0.785156,1.085938,-0.986328,-1.761719,1.242188
44101.0,-5.035156,-6.621094,2.945312,0.128906,1.074219,1.039062,-0.931641,-1.962891,1.449219
44116.0,-5.035156,-6.34375,2.984375,0.316406,1.648438,1.007812,-1.0,-2.074219,1.496094
44131.0,-5.109375,-6.0,2.832031,0.402344,1.691406,0.898438,-1.160156,-2.244141,1.564453
44144.0,-5.148438,-6.238281,2.640625,0.390625,1.382812,0.515625,-1.240234,-2.298828,1.574219
44171.0,-4.648438,-7.726562,1.683594,0.828125,0.148438,-0.359375,-1.277344,-2.265625,1.529297
44195.0,-4.574219,-8.574219,1.757812,1.285156,-1.257812,-0.5625,-1.154297,-2.183594,1.484375
44211.0,-4.574219,-8.613281,1.949219,1.300781,-1.398438,-0.53125,-1.091797,-2.185547,1.470703
44224.0,-4.496094,-8.535156,1.988281,1.527344,-1.414062,-0.488281,-1.074219,-2.193359,1.474609
44241.0,-4.230469,-8.691406,1.988281,1.6875,-1.507812,-0.503906,-1.105469,-2.228516,1.402344
44262.0,-3.65625,-8.796875,1.910156,1.886719,-1.6875,-0.605469,-1.117188,-2.242188,1.234375
44282.0,-2.886719,-8.757812,1.644531,3.152344,-1.902344,-1.023438,-1.03125,-2.111328,1.060547
44305.0,-2.773438,-9.101562,1.222656,3.4375,-2.355469,-1.746094,-0.927734,-1.908203,0.869141
44345.0,-2.734375,-8.796875,1.414062,3.453125,-2.136719,-1.789062,-0.53125,-1.589844,0.708984
44361.0,-3.078125,-8.496094,1.683594,3.300781,-2.015625,-1.699219,-0.341797,-1.195312,0.585938
44385.0,-3.769531,-8.339844,1.644531,2.394531,-1.761719,-1.753906,-0.367188,-0.908203,0.400391
44402.0,-4.074219,-8.265625,1.835938,2.195312,-1.730469,-1.710938,-0.439453,-0.609375,0.322266
44425.0,-4.457031,-8.269531,2.332031,1.691406,-1.695312,-1.089844,-0.605469,-0.322266,0.34375
44442.0,-4.765625,-8.375,2.5625,1.550781,-1.722656,-0.914062,-0.798828,-0.037109,0.300781
44465.0,-4.996094,-8.875,2.640625,1.207031,-2.269531,-0.585938,-0.775391,0.224609,0.242188
44481.0,-4.996094,-9.257812,2.90625,1.148438,-2.453125,-0.402344,-0.587891,0.417969,0.289062
44504.0,-4.648438,-9.074219,3.445312,1.671875,-2.453125,0.484375,-0.300781,0.623047,0.402344
44535.0,-5.492188,-8.53125,3.445312,0.953125,-1.96875,0.65625,-0.007812,0.830078,0.433594
44553.0,-6.796875,-8.1875,3.597656,0.46875,-1.855469,0.855469,0.265625,0.912109,0.505859
44576.0,-9.976562,-7.421875,3.519531,-3.328125,-0.992188,0.902344,0.378906,0.949219,0.439453
44592.0,-10.78125,-6.234375,3.789062,-3.855469,-0.449219,1.011719,0.505859,0.824219,0.400391
44615.0,-10.007812,-4.472656,4.667969,-3.175781,1.808594,2.160156,0.347656,0.689453,0.572266
44626.0,-9.703125,-4.472656,4.707031,-2.816406,1.753906,2.222656,-0.091797,0.398438,0.884766
44655.0,-9.398438,-6.195312,4.515625,-2.332031,-0.140625,2.101562,-0.113281,0.15625,0.900391
44672.0,-9.476562,-5.851562,4.59375,-2.3125,-0.203125,2.132812,0.623047,0.080078,0.818359
44695.0,-9.820312,-4.050781,4.402344,-2.546875,1.738281,1.871094,0.832031,0.109375,0.761719
44705.0,-10.011719,-3.550781,4.210938,-2.699219,2.167969,1.632812,0.876953,0.175781,0.603516
44736.0,-9.554688,-3.359375,3.597656,-2.125,2.1875,0.941406,0.177734,0.009766,0.6875
44752.0,-9.015625,-4.011719,3.328125,-1.863281,1.824219,0.816406,-0.21875,-0.232422,0.84375
44775.0,-8.019531,-4.546875,3.0625,-0.441406,0.78125,0.367188,-0.296875,-0.380859,0.865234
44806.0,-7.292969,-4.320312,2.792969,0.386719,0.84375,0.035156,-0.255859,-0.447266,0.806641
44822.0,-7.292969,-4.089844,2.753906,0.449219,0.90625,-0.027344,-0.226562,-0.453125,0.607422
44844.0,-7.027344,-3.667969,2.792969,0.433594,0.980469,-0.058594,-0.263672,-0.453125,0.5
44862.0,-6.871094,-3.4375,2.714844,0.863281,1.425781,-0.167969,-0.333984,-0.449219,0.421875
44887.0,-6.90625,-3.359375,2.257812,0.878906,1.554688,-0.679688,-0.390625,-0.470703,0.351562
44902.0,-6.988281,-3.207031,1.910156,0.808594,1.574219,-0.886719,-0.441406,-0.501953,0.3125
44926.0,-7.101562,-2.785156,1.644531,0.695312,2.074219,-1.371094,-0.544922,-0.501953,0.324219
44943.0,-7.332031,-2.59375,1.492188,0.578125,2.179688,-1.457031,-0.751953,-0.535156,0.365234
44960.0,-7.527344,-2.632812,1.375,0.464844,2.25,-1.539062,-0.873047,-0.568359,0.398438
44975.0,-7.671875,-2.824219,1.222656,0.128906,2.003906,-1.808594,-1.0,-0.613281,0.441406
45005.0,-7.910156,-3.246094,1.03125,-0.078125,1.550781,-1.992188,-1.332031,-0.705078,0.683594
45036.0,-8.410156,-3.398438,0.953125,-0.722656,1.296875,-2.105469,-1.441406,-0.675781,0.800781
45052.0,-9.015625,-3.550781,0.648438,-0.890625,1.195312,-2.191406,-1.59375,-0.621094,0.949219
45076.0,-9.59375,-3.550781,0.496094,-1.617188,1.066406,-2.378906,-1.626953,-0.605469,0.992188
45095.0,-9.746094,-3.515625,0.378906,-1.738281,1.054688,-2.464844,-1.742188,-0.591797,1.076172
45122.0,-9.703125,-3.054688,-0.082031,-1.628906,1.246094,-2.699219,-1.851562,-0.501953,1.189453
